"blockNum","color","hit","initrt","intervalLength","intervalNum","intervalType","moneyEarned","phase","platform","question","rating","response","rt","sessionNum","stimOn","trialNum","type","uniqueid","word"
1,"blue",1,NA,8000,1,"hard",0,"MainBlock","PROLIFIC",NA,NA,"blue",560,0,1606145951455,1,"congruent","5ee7c8493d520b093cd0e45d:TSS-Stress_20201122","BLUE"
1,"yellow",1,NA,8000,1,"hard",0,"MainBlock","PROLIFIC",NA,NA,"yellow",613,0,1606145952018,2,"incongruent","5ee7c8493d520b093cd0e45d:TSS-Stress_20201122","RED"
1,"green",1,NA,8000,1,"hard",0,"MainBlock","PROLIFIC",NA,NA,"green",406,0,1606145952633,3,"congruent","5ee7c8493d520b093cd0e45d:TSS-Stress_20201122","GREEN"
1,"blue",1,NA,8000,1,"hard",0,"MainBlock","PROLIFIC",NA,NA,"blue",485,0,1606145953042,4,"incongruent","5ee7c8493d520b093cd0e45d:TSS-Stress_20201122","YELLOW"
1,"green",0,NA,8000,1,"hard",0,"MainBlock","PROLIFIC",NA,NA,"red",862,0,1606145953529,5,"incongruent","5ee7c8493d520b093cd0e45d:TSS-Stress_20201122","BLUE"
1,"yellow",0,NA,8000,1,"hard",0,"MainBlock","PROLIFIC",NA,NA,"green",741,0,1606145954394,6,"incongruent","5ee7c8493d520b093cd0e45d:TSS-Stress_20201122","RED"
1,"blue",1,NA,8000,1,"hard",0,"MainBlock","PROLIFIC",NA,NA,"blue",606,0,1606145955137,7,"congruent","5ee7c8493d520b093cd0e45d:TSS-Stress_20201122","BLUE"
1,"red",1,NA,8000,1,"hard",0,"MainBlock","PROLIFIC",NA,NA,"red",837,0,1606145955746,8,"incongruent","5ee7c8493d520b093cd0e45d:TSS-Stress_20201122","YELLOW"
1,"green",1,NA,8000,1,"hard",0,"MainBlock","PROLIFIC",NA,NA,"green",517,0,1606145956586,9,"congruent","5ee7c8493d520b093cd0e45d:TSS-Stress_20201122","GREEN"
1,"blue",1,NA,8000,1,"hard",0,"MainBlock","PROLIFIC",NA,NA,"blue",721,0,1606145957106,10,"congruent","5ee7c8493d520b093cd0e45d:TSS-Stress_20201122","BLUE"
1,"yellow",1,NA,8000,1,"hard",0,"MainBlock","PROLIFIC",NA,NA,"yellow",578,0,1606145957829,11,"incongruent","5ee7c8493d520b093cd0e45d:TSS-Stress_20201122","GREEN"
1,"green",1,NA,8000,1,"hard",0,"MainBlock","PROLIFIC",NA,NA,"green",862,0,1606145958409,12,"incongruent","5ee7c8493d520b093cd0e45d:TSS-Stress_20201122","BLUE"
1,"",NA,NA,8000,1,"hard",0.02,"MainBlock","PROLIFIC",0,9,"",NA,0,NA,NA,"","5ee7c8493d520b093cd0e45d:TSS-Stress_20201122",""
1,"blue",1,NA,8000,2,"hard",0,"MainBlock","PROLIFIC",NA,NA,"blue",672,0,1606145968119,1,"congruent","5ee7c8493d520b093cd0e45d:TSS-Stress_20201122","BLUE"
1,"yellow",0,NA,8000,2,"hard",0,"MainBlock","PROLIFIC",NA,NA,"red",1014,0,1606145968793,2,"incongruent","5ee7c8493d520b093cd0e45d:TSS-Stress_20201122","GREEN"
1,"blue",1,NA,8000,2,"hard",0,"MainBlock","PROLIFIC",NA,NA,"blue",734,0,1606145969809,3,"incongruent","5ee7c8493d520b093cd0e45d:TSS-Stress_20201122","YELLOW"
1,"red",1,NA,8000,2,"hard",0,"MainBlock","PROLIFIC",NA,NA,"red",782,0,1606145970545,4,"incongruent","5ee7c8493d520b093cd0e45d:TSS-Stress_20201122","BLUE"
1,"green",1,NA,8000,2,"hard",0,"MainBlock","PROLIFIC",NA,NA,"green",582,0,1606145971329,5,"congruent","5ee7c8493d520b093cd0e45d:TSS-Stress_20201122","GREEN"
1,"yellow",1,NA,8000,2,"hard",0,"MainBlock","PROLIFIC",NA,NA,"yellow",646,0,1606145971913,6,"congruent","5ee7c8493d520b093cd0e45d:TSS-Stress_20201122","YELLOW"
1,"green",1,NA,8000,2,"hard",0,"MainBlock","PROLIFIC",NA,NA,"green",502,0,1606145972561,7,"congruent","5ee7c8493d520b093cd0e45d:TSS-Stress_20201122","GREEN"
1,"red",0,NA,8000,2,"hard",0,"MainBlock","PROLIFIC",NA,NA,"blue",470,0,1606145973065,8,"incongruent","5ee7c8493d520b093cd0e45d:TSS-Stress_20201122","BLUE"
1,"blue",1,NA,8000,2,"hard",0,"MainBlock","PROLIFIC",NA,NA,"blue",558,0,1606145973537,9,"incongruent","5ee7c8493d520b093cd0e45d:TSS-Stress_20201122","RED"
1,"green",1,NA,8000,2,"hard",0,"MainBlock","PROLIFIC",NA,NA,"green",534,0,1606145974097,10,"congruent","5ee7c8493d520b093cd0e45d:TSS-Stress_20201122","GREEN"
1,"red",1,NA,8000,2,"hard",0,"MainBlock","PROLIFIC",NA,NA,"red",830,0,1606145974633,11,"incongruent","5ee7c8493d520b093cd0e45d:TSS-Stress_20201122","BLUE"
1,"green",1,NA,8000,2,"hard",0,"MainBlock","PROLIFIC",NA,NA,"green",606,0,1606145975465,12,"congruent","5ee7c8493d520b093cd0e45d:TSS-Stress_20201122","GREEN"
1,"",NA,NA,8000,2,"hard",0.02,"MainBlock","PROLIFIC",1,5.9,"",NA,0,NA,NA,"","5ee7c8493d520b093cd0e45d:TSS-Stress_20201122",""
2,"green",1,NA,8000,1,"easy",0,"MainBlock","PROLIFIC",NA,NA,"green",1212,0,1606145991163,1,"congruent","5ee7c8493d520b093cd0e45d:TSS-Stress_20201122","GREEN"
2,"blue",1,NA,8000,1,"easy",0,"MainBlock","PROLIFIC",NA,NA,"blue",750,0,1606145992377,2,"incongruent","5ee7c8493d520b093cd0e45d:TSS-Stress_20201122","YELLOW"
2,"red",1,NA,8000,1,"easy",0,"MainBlock","PROLIFIC",NA,NA,"red",598,0,1606145993129,3,"congruent","5ee7c8493d520b093cd0e45d:TSS-Stress_20201122","RED"
2,"blue",1,NA,8000,1,"easy",0,"MainBlock","PROLIFIC",NA,NA,"blue",678,0,1606145993729,4,"incongruent","5ee7c8493d520b093cd0e45d:TSS-Stress_20201122","YELLOW"
2,"yellow",1,NA,8000,1,"easy",0,"MainBlock","PROLIFIC",NA,NA,"yellow",654,0,1606145994409,5,"incongruent","5ee7c8493d520b093cd0e45d:TSS-Stress_20201122","GREEN"
2,"red",1,NA,8000,1,"easy",0,"MainBlock","PROLIFIC",NA,NA,"red",766,0,1606145995065,6,"congruent","5ee7c8493d520b093cd0e45d:TSS-Stress_20201122","RED"
2,"yellow",1,NA,8000,1,"easy",0,"MainBlock","PROLIFIC",NA,NA,"yellow",494,0,1606145995833,7,"congruent","5ee7c8493d520b093cd0e45d:TSS-Stress_20201122","YELLOW"
2,"blue",1,NA,8000,1,"easy",0,"MainBlock","PROLIFIC",NA,NA,"blue",894,0,1606145996329,8,"incongruent","5ee7c8493d520b093cd0e45d:TSS-Stress_20201122","RED"
2,"yellow",1,NA,8000,1,"easy",0,"MainBlock","PROLIFIC",NA,NA,"yellow",590,0,1606145997225,9,"congruent","5ee7c8493d520b093cd0e45d:TSS-Stress_20201122","YELLOW"
2,"red",1,NA,8000,1,"easy",0,"MainBlock","PROLIFIC",NA,NA,"red",710,0,1606145997817,10,"incongruent","5ee7c8493d520b093cd0e45d:TSS-Stress_20201122","GREEN"
2,"",NA,NA,8000,1,"easy",0.02,"MainBlock","PROLIFIC",1,5.9,"",NA,0,NA,NA,"","5ee7c8493d520b093cd0e45d:TSS-Stress_20201122",""
2,"yellow",1,NA,8000,2,"easy",0,"MainBlock","PROLIFIC",NA,NA,"yellow",721,0,1606146006301,1,"incongruent","5ee7c8493d520b093cd0e45d:TSS-Stress_20201122","GREEN"
2,"blue",1,NA,8000,2,"easy",0,"MainBlock","PROLIFIC",NA,NA,"blue",582,0,1606146007024,2,"congruent","5ee7c8493d520b093cd0e45d:TSS-Stress_20201122","BLUE"
2,"green",1,NA,8000,2,"easy",0,"MainBlock","PROLIFIC",NA,NA,"green",445,0,1606146007609,3,"congruent","5ee7c8493d520b093cd0e45d:TSS-Stress_20201122","GREEN"
2,"red",1,NA,8000,2,"easy",0,"MainBlock","PROLIFIC",NA,NA,"red",726,0,1606146008056,4,"incongruent","5ee7c8493d520b093cd0e45d:TSS-Stress_20201122","YELLOW"
2,"yellow",1,NA,8000,2,"easy",0,"MainBlock","PROLIFIC",NA,NA,"yellow",637,0,1606146008785,5,"incongruent","5ee7c8493d520b093cd0e45d:TSS-Stress_20201122","BLUE"
2,"red",1,NA,8000,2,"easy",0,"MainBlock","PROLIFIC",NA,NA,"red",1525,0,1606146009425,6,"congruent","5ee7c8493d520b093cd0e45d:TSS-Stress_20201122","RED"
2,"green",1,NA,8000,2,"easy",0,"MainBlock","PROLIFIC",NA,NA,"green",581,0,1606146010953,7,"congruent","5ee7c8493d520b093cd0e45d:TSS-Stress_20201122","GREEN"
2,"blue",1,NA,8000,2,"easy",0,"MainBlock","PROLIFIC",NA,NA,"blue",605,0,1606146011537,8,"incongruent","5ee7c8493d520b093cd0e45d:TSS-Stress_20201122","RED"
2,"red",1,NA,8000,2,"easy",0,"MainBlock","PROLIFIC",NA,NA,"red",902,0,1606146012145,9,"incongruent","5ee7c8493d520b093cd0e45d:TSS-Stress_20201122","GREEN"
2,"blue",1,NA,8000,2,"easy",0,"MainBlock","PROLIFIC",NA,NA,"blue",685,0,1606146013049,10,"congruent","5ee7c8493d520b093cd0e45d:TSS-Stress_20201122","BLUE"
2,"",NA,NA,8000,2,"easy",0.02,"MainBlock","PROLIFIC",1,6.1,"",NA,0,NA,NA,"","5ee7c8493d520b093cd0e45d:TSS-Stress_20201122",""
3,"yellow",1,NA,8000,1,"hard",0,"MainBlock","PROLIFIC",NA,NA,"yellow",846,0,1606146024008,1,"incongruent","5ee7c8493d520b093cd0e45d:TSS-Stress_20201122","GREEN"
3,"blue",1,NA,8000,1,"hard",0,"MainBlock","PROLIFIC",NA,NA,"blue",510,0,1606146024856,2,"congruent","5ee7c8493d520b093cd0e45d:TSS-Stress_20201122","BLUE"
3,"red",1,NA,8000,1,"hard",0,"MainBlock","PROLIFIC",NA,NA,"red",518,0,1606146025368,3,"congruent","5ee7c8493d520b093cd0e45d:TSS-Stress_20201122","RED"
3,"blue",1,NA,8000,1,"hard",0,"MainBlock","PROLIFIC",NA,NA,"blue",606,0,1606146025888,4,"incongruent","5ee7c8493d520b093cd0e45d:TSS-Stress_20201122","YELLOW"
3,"yellow",1,NA,8000,1,"hard",0,"MainBlock","PROLIFIC",NA,NA,"yellow",702,0,1606146026496,5,"incongruent","5ee7c8493d520b093cd0e45d:TSS-Stress_20201122","RED"
3,"blue",1,NA,8000,1,"hard",0,"MainBlock","PROLIFIC",NA,NA,"blue",671,0,1606146027200,6,"incongruent","5ee7c8493d520b093cd0e45d:TSS-Stress_20201122","YELLOW"
3,"yellow",1,NA,8000,1,"hard",0,"MainBlock","PROLIFIC",NA,NA,"yellow",509,0,1606146027873,7,"incongruent","5ee7c8493d520b093cd0e45d:TSS-Stress_20201122","RED"
3,"green",1,NA,8000,1,"hard",0,"MainBlock","PROLIFIC",NA,NA,"green",590,0,1606146028384,8,"congruent","5ee7c8493d520b093cd0e45d:TSS-Stress_20201122","GREEN"
3,"blue",1,NA,8000,1,"hard",0,"MainBlock","PROLIFIC",NA,NA,"blue",494,0,1606146028976,9,"congruent","5ee7c8493d520b093cd0e45d:TSS-Stress_20201122","BLUE"
3,"green",1,NA,8000,1,"hard",0,"MainBlock","PROLIFIC",NA,NA,"green",686,0,1606146029472,10,"congruent","5ee7c8493d520b093cd0e45d:TSS-Stress_20201122","GREEN"
3,"blue",1,NA,8000,1,"hard",0,"MainBlock","PROLIFIC",NA,NA,"blue",653,0,1606146030161,11,"congruent","5ee7c8493d520b093cd0e45d:TSS-Stress_20201122","BLUE"
3,"red",1,NA,8000,1,"hard",0,"MainBlock","PROLIFIC",NA,NA,"red",662,0,1606146030816,12,"incongruent","5ee7c8493d520b093cd0e45d:TSS-Stress_20201122","YELLOW"
3,"",NA,NA,8000,1,"hard",0.024,"MainBlock","PROLIFIC",1,7.3,"",NA,0,NA,NA,"","5ee7c8493d520b093cd0e45d:TSS-Stress_20201122",""
3,"red",1,NA,8000,2,"hard",0,"MainBlock","PROLIFIC",NA,NA,"red",839,0,1606146039199,1,"incongruent","5ee7c8493d520b093cd0e45d:TSS-Stress_20201122","BLUE"
3,"yellow",0,NA,8000,2,"hard",0,"MainBlock","PROLIFIC",NA,NA,"green",958,0,1606146040040,2,"congruent","5ee7c8493d520b093cd0e45d:TSS-Stress_20201122","YELLOW"
3,"green",1,NA,8000,2,"hard",0,"MainBlock","PROLIFIC",NA,NA,"green",838,0,1606146041000,3,"congruent","5ee7c8493d520b093cd0e45d:TSS-Stress_20201122","GREEN"
3,"red",1,NA,8000,2,"hard",0,"MainBlock","PROLIFIC",NA,NA,"red",558,0,1606146041840,4,"incongruent","5ee7c8493d520b093cd0e45d:TSS-Stress_20201122","YELLOW"
3,"yellow",1,NA,8000,2,"hard",0,"MainBlock","PROLIFIC",NA,NA,"yellow",646,0,1606146042400,5,"incongruent","5ee7c8493d520b093cd0e45d:TSS-Stress_20201122","BLUE"
3,"green",1,NA,8000,2,"hard",0,"MainBlock","PROLIFIC",NA,NA,"green",438,0,1606146043048,6,"congruent","5ee7c8493d520b093cd0e45d:TSS-Stress_20201122","GREEN"
3,"red",1,NA,8000,2,"hard",0,"MainBlock","PROLIFIC",NA,NA,"red",526,0,1606146043488,7,"incongruent","5ee7c8493d520b093cd0e45d:TSS-Stress_20201122","BLUE"
3,"yellow",1,NA,8000,2,"hard",0,"MainBlock","PROLIFIC",NA,NA,"yellow",574,0,1606146044016,8,"congruent","5ee7c8493d520b093cd0e45d:TSS-Stress_20201122","YELLOW"
3,"red",1,NA,8000,2,"hard",0,"MainBlock","PROLIFIC",NA,NA,"red",574,0,1606146044592,9,"congruent","5ee7c8493d520b093cd0e45d:TSS-Stress_20201122","RED"
3,"green",1,NA,8000,2,"hard",0,"MainBlock","PROLIFIC",NA,NA,"green",582,0,1606146045168,10,"incongruent","5ee7c8493d520b093cd0e45d:TSS-Stress_20201122","YELLOW"
3,"blue",1,NA,8000,2,"hard",0,"MainBlock","PROLIFIC",NA,NA,"blue",526,0,1606146045752,11,"incongruent","5ee7c8493d520b093cd0e45d:TSS-Stress_20201122","GREEN"
3,"red",1,NA,8000,2,"hard",0,"MainBlock","PROLIFIC",NA,NA,"red",670,0,1606146046280,12,"incongruent","5ee7c8493d520b093cd0e45d:TSS-Stress_20201122","BLUE"
3,"",NA,NA,8000,2,"hard",0.022,"MainBlock","PROLIFIC",0,6.2,"",NA,0,NA,NA,"","5ee7c8493d520b093cd0e45d:TSS-Stress_20201122",""
4,"yellow",1,NA,8000,1,"easy",0,"MainBlock","PROLIFIC",NA,NA,"yellow",1533,0,1606146056745,1,"incongruent","5ee7c8493d520b093cd0e45d:TSS-Stress_20201122","BLUE"
4,"red",1,NA,8000,1,"easy",0,"MainBlock","PROLIFIC",NA,NA,"red",718,0,1606146058280,2,"congruent","5ee7c8493d520b093cd0e45d:TSS-Stress_20201122","RED"
4,"green",1,NA,8000,1,"easy",0,"MainBlock","PROLIFIC",NA,NA,"green",542,0,1606146059000,3,"congruent","5ee7c8493d520b093cd0e45d:TSS-Stress_20201122","GREEN"
4,"blue",1,NA,8000,1,"easy",0,"MainBlock","PROLIFIC",NA,NA,"blue",479,0,1606146059543,4,"incongruent","5ee7c8493d520b093cd0e45d:TSS-Stress_20201122","YELLOW"
4,"red",1,NA,8000,1,"easy",0,"MainBlock","PROLIFIC",NA,NA,"red",726,0,1606146060024,5,"incongruent","5ee7c8493d520b093cd0e45d:TSS-Stress_20201122","BLUE"
4,"green",1,NA,8000,1,"easy",0,"MainBlock","PROLIFIC",NA,NA,"green",862,0,1606146060752,6,"incongruent","5ee7c8493d520b093cd0e45d:TSS-Stress_20201122","RED"
4,"yellow",1,NA,8000,1,"easy",0,"MainBlock","PROLIFIC",NA,NA,"yellow",582,0,1606146061616,7,"incongruent","5ee7c8493d520b093cd0e45d:TSS-Stress_20201122","BLUE"
4,"green",0,NA,8000,1,"easy",0,"MainBlock","PROLIFIC",NA,NA,"red",646,0,1606146062200,8,"congruent","5ee7c8493d520b093cd0e45d:TSS-Stress_20201122","GREEN"
4,"red",1,NA,8000,1,"easy",0,"MainBlock","PROLIFIC",NA,NA,"red",1238,0,1606146062848,9,"incongruent","5ee7c8493d520b093cd0e45d:TSS-Stress_20201122","YELLOW"
4,"blue",1,NA,8000,1,"easy",0,"MainBlock","PROLIFIC",NA,NA,"blue",574,0,1606146064088,10,"incongruent","5ee7c8493d520b093cd0e45d:TSS-Stress_20201122","GREEN"
4,"",NA,NA,8000,1,"easy",0.018,"MainBlock","PROLIFIC",1,4.4,"",NA,0,NA,NA,"","5ee7c8493d520b093cd0e45d:TSS-Stress_20201122",""
4,"green",1,NA,8000,2,"easy",0,"MainBlock","PROLIFIC",NA,NA,"green",520,0,1606146076502,1,"congruent","5ee7c8493d520b093cd0e45d:TSS-Stress_20201122","GREEN"
4,"yellow",0,NA,8000,2,"easy",0,"MainBlock","PROLIFIC",NA,NA,"red",613,0,1606146077024,2,"incongruent","5ee7c8493d520b093cd0e45d:TSS-Stress_20201122","RED"
4,"blue",1,NA,8000,2,"easy",0,"MainBlock","PROLIFIC",NA,NA,"blue",678,0,1606146077639,3,"incongruent","5ee7c8493d520b093cd0e45d:TSS-Stress_20201122","YELLOW"
4,"green",1,NA,8000,2,"easy",0,"MainBlock","PROLIFIC",NA,NA,"green",886,0,1606146078319,4,"incongruent","5ee7c8493d520b093cd0e45d:TSS-Stress_20201122","BLUE"
4,"yellow",1,NA,8000,2,"easy",0,"MainBlock","PROLIFIC",NA,NA,"yellow",758,0,1606146079207,5,"congruent","5ee7c8493d520b093cd0e45d:TSS-Stress_20201122","YELLOW"
4,"green",1,NA,8000,2,"easy",0,"MainBlock","PROLIFIC",NA,NA,"green",406,0,1606146079967,6,"congruent","5ee7c8493d520b093cd0e45d:TSS-Stress_20201122","GREEN"
4,"red",1,NA,8000,2,"easy",0,"MainBlock","PROLIFIC",NA,NA,"red",645,0,1606146080376,7,"incongruent","5ee7c8493d520b093cd0e45d:TSS-Stress_20201122","YELLOW"
4,"green",1,NA,8000,2,"easy",0,"MainBlock","PROLIFIC",NA,NA,"green",598,0,1606146081023,8,"congruent","5ee7c8493d520b093cd0e45d:TSS-Stress_20201122","GREEN"
4,"blue",1,NA,8000,2,"easy",0,"MainBlock","PROLIFIC",NA,NA,"blue",439,0,1606146081623,9,"congruent","5ee7c8493d520b093cd0e45d:TSS-Stress_20201122","BLUE"
4,"green",1,NA,8000,2,"easy",0,"MainBlock","PROLIFIC",NA,NA,"green",589,0,1606146082064,10,"incongruent","5ee7c8493d520b093cd0e45d:TSS-Stress_20201122","YELLOW"
4,"red",1,NA,8000,2,"easy",0,"MainBlock","PROLIFIC",NA,NA,"red",518,0,1606146082655,11,"congruent","5ee7c8493d520b093cd0e45d:TSS-Stress_20201122","RED"
4,"green",1,NA,8000,2,"easy",0,"MainBlock","PROLIFIC",NA,NA,"green",566,0,1606146083175,12,"incongruent","5ee7c8493d520b093cd0e45d:TSS-Stress_20201122","YELLOW"
4,"yellow",1,NA,8000,2,"easy",0,"MainBlock","PROLIFIC",NA,NA,"yellow",478,0,1606146083743,13,"incongruent","5ee7c8493d520b093cd0e45d:TSS-Stress_20201122","GREEN"
4,"",NA,NA,8000,2,"easy",0.024,"MainBlock","PROLIFIC",0,6.1,"",NA,0,NA,NA,"","5ee7c8493d520b093cd0e45d:TSS-Stress_20201122",""
1,"red",1,NA,8000,1,"hard",0,"MainBlock","PROLIFIC",NA,NA,"red",671,0,1606161756199,1,"congruent","5e651a304eb006294c9164ea:TSS-Stress_20201122","RED"
1,"yellow",0,NA,8000,1,"hard",0,"MainBlock","PROLIFIC",NA,NA,"green",680,0,1606161756873,2,"incongruent","5e651a304eb006294c9164ea:TSS-Stress_20201122","BLUE"
1,"green",1,NA,8000,1,"hard",0,"MainBlock","PROLIFIC",NA,NA,"green",845,0,1606161757556,3,"congruent","5e651a304eb006294c9164ea:TSS-Stress_20201122","GREEN"
1,"blue",1,NA,8000,1,"hard",0,"MainBlock","PROLIFIC",NA,NA,"blue",485,0,1606161758404,4,"incongruent","5e651a304eb006294c9164ea:TSS-Stress_20201122","RED"
1,"green",1,NA,8000,1,"hard",0,"MainBlock","PROLIFIC",NA,NA,"green",805,0,1606161758892,5,"incongruent","5e651a304eb006294c9164ea:TSS-Stress_20201122","BLUE"
1,"red",1,NA,8000,1,"hard",0,"MainBlock","PROLIFIC",NA,NA,"red",554,0,1606161759703,6,"congruent","5e651a304eb006294c9164ea:TSS-Stress_20201122","RED"
1,"blue",1,NA,8000,1,"hard",0,"MainBlock","PROLIFIC",NA,NA,"blue",789,0,1606161760260,7,"congruent","5e651a304eb006294c9164ea:TSS-Stress_20201122","BLUE"
1,"red",1,NA,8000,1,"hard",0,"MainBlock","PROLIFIC",NA,NA,"red",877,0,1606161761052,8,"incongruent","5e651a304eb006294c9164ea:TSS-Stress_20201122","YELLOW"
1,"yellow",1,NA,8000,1,"hard",0,"MainBlock","PROLIFIC",NA,NA,"yellow",581,0,1606161761932,9,"incongruent","5e651a304eb006294c9164ea:TSS-Stress_20201122","BLUE"
1,"green",1,NA,8000,1,"hard",0,"MainBlock","PROLIFIC",NA,NA,"green",516,0,1606161762517,10,"congruent","5e651a304eb006294c9164ea:TSS-Stress_20201122","GREEN"
1,"blue",1,NA,8000,1,"hard",0,"MainBlock","PROLIFIC",NA,NA,"blue",376,0,1606161763037,11,"congruent","5e651a304eb006294c9164ea:TSS-Stress_20201122","BLUE"
1,"red",1,NA,8000,1,"hard",0,"MainBlock","PROLIFIC",NA,NA,"red",628,0,1606161763417,12,"incongruent","5e651a304eb006294c9164ea:TSS-Stress_20201122","GREEN"
1,"",NA,NA,8000,1,"hard",0,"MainBlock","PROLIFIC",1,2.4,"",NA,0,NA,NA,"","5e651a304eb006294c9164ea:TSS-Stress_20201122",""
1,"blue",1,NA,8000,2,"hard",0,"MainBlock","PROLIFIC",NA,NA,"blue",603,0,1606161772910,1,"congruent","5e651a304eb006294c9164ea:TSS-Stress_20201122","BLUE"
1,"yellow",1,NA,8000,2,"hard",0,"MainBlock","PROLIFIC",NA,NA,"yellow",721,0,1606161773516,2,"incongruent","5e651a304eb006294c9164ea:TSS-Stress_20201122","GREEN"
1,"blue",1,NA,8000,2,"hard",0,"MainBlock","PROLIFIC",NA,NA,"blue",612,0,1606161774240,3,"congruent","5e651a304eb006294c9164ea:TSS-Stress_20201122","BLUE"
1,"yellow",1,NA,8000,2,"hard",0,"MainBlock","PROLIFIC",NA,NA,"yellow",751,0,1606161774857,4,"incongruent","5e651a304eb006294c9164ea:TSS-Stress_20201122","RED"
1,"blue",1,NA,8000,2,"hard",0,"MainBlock","PROLIFIC",NA,NA,"blue",509,0,1606161775611,5,"incongruent","5e651a304eb006294c9164ea:TSS-Stress_20201122","GREEN"
1,"yellow",1,NA,8000,2,"hard",0,"MainBlock","PROLIFIC",NA,NA,"yellow",477,0,1606161776123,6,"congruent","5e651a304eb006294c9164ea:TSS-Stress_20201122","YELLOW"
1,"red",1,NA,8000,2,"hard",0,"MainBlock","PROLIFIC",NA,NA,"red",500,0,1606161776604,7,"congruent","5e651a304eb006294c9164ea:TSS-Stress_20201122","RED"
1,"yellow",1,NA,8000,2,"hard",0,"MainBlock","PROLIFIC",NA,NA,"yellow",681,0,1606161777107,8,"incongruent","5e651a304eb006294c9164ea:TSS-Stress_20201122","GREEN"
1,"blue",0,NA,8000,2,"hard",0,"MainBlock","PROLIFIC",NA,NA,"red",476,0,1606161777792,9,"congruent","5e651a304eb006294c9164ea:TSS-Stress_20201122","BLUE"
1,"red",1,NA,8000,2,"hard",0,"MainBlock","PROLIFIC",NA,NA,"red",712,0,1606161778272,10,"incongruent","5e651a304eb006294c9164ea:TSS-Stress_20201122","YELLOW"
1,"green",1,NA,8000,2,"hard",0,"MainBlock","PROLIFIC",NA,NA,"green",576,0,1606161778988,11,"congruent","5e651a304eb006294c9164ea:TSS-Stress_20201122","GREEN"
1,"blue",0,NA,8000,2,"hard",0,"MainBlock","PROLIFIC",NA,NA,"yellow",627,0,1606161779569,12,"incongruent","5e651a304eb006294c9164ea:TSS-Stress_20201122","RED"
1,"",NA,NA,8000,2,"hard",0,"MainBlock","PROLIFIC",1,5.1,"",NA,0,NA,NA,"","5e651a304eb006294c9164ea:TSS-Stress_20201122",""
1,"blue",1,NA,8000,3,"hard",0,"MainBlock","PROLIFIC",NA,NA,"blue",603,0,1606161787925,1,"congruent","5e651a304eb006294c9164ea:TSS-Stress_20201122","BLUE"
1,"green",0,NA,8000,3,"hard",0,"MainBlock","PROLIFIC",NA,NA,"yellow",836,0,1606161788532,2,"incongruent","5e651a304eb006294c9164ea:TSS-Stress_20201122","YELLOW"
1,"red",1,NA,8000,3,"hard",0,"MainBlock","PROLIFIC",NA,NA,"red",1035,0,1606161789373,3,"congruent","5e651a304eb006294c9164ea:TSS-Stress_20201122","RED"
1,"yellow",1,NA,8000,3,"hard",0,"MainBlock","PROLIFIC",NA,NA,"yellow",496,0,1606161790412,4,"incongruent","5e651a304eb006294c9164ea:TSS-Stress_20201122","BLUE"
1,"green",1,NA,8000,3,"hard",0,"MainBlock","PROLIFIC",NA,NA,"green",682,0,1606161790911,5,"congruent","5e651a304eb006294c9164ea:TSS-Stress_20201122","GREEN"
1,"red",1,NA,8000,3,"hard",0,"MainBlock","PROLIFIC",NA,NA,"red",783,0,1606161791596,6,"incongruent","5e651a304eb006294c9164ea:TSS-Stress_20201122","BLUE"
1,"green",1,NA,8000,3,"hard",0,"MainBlock","PROLIFIC",NA,NA,"green",741,0,1606161792382,7,"congruent","5e651a304eb006294c9164ea:TSS-Stress_20201122","GREEN"
1,"red",1,NA,8000,3,"hard",0,"MainBlock","PROLIFIC",NA,NA,"red",1287,0,1606161793128,8,"incongruent","5e651a304eb006294c9164ea:TSS-Stress_20201122","BLUE"
1,"green",1,NA,8000,3,"hard",0,"MainBlock","PROLIFIC",NA,NA,"green",705,0,1606161794418,9,"incongruent","5e651a304eb006294c9164ea:TSS-Stress_20201122","YELLOW"
1,"red",1,NA,8000,3,"hard",0,"MainBlock","PROLIFIC",NA,NA,"red",500,0,1606161795127,10,"congruent","5e651a304eb006294c9164ea:TSS-Stress_20201122","RED"
1,"",NA,NA,8000,3,"hard",0.018,"MainBlock","PROLIFIC",0,1.5,"",NA,0,NA,NA,"","5e651a304eb006294c9164ea:TSS-Stress_20201122",""
1,"yellow",1,NA,8000,4,"hard",0,"MainBlock","PROLIFIC",NA,NA,"yellow",1126,0,1606161806297,1,"incongruent","5e651a304eb006294c9164ea:TSS-Stress_20201122","GREEN"
1,"blue",1,NA,8000,4,"hard",0,"MainBlock","PROLIFIC",NA,NA,"blue",657,0,1606161807426,2,"congruent","5e651a304eb006294c9164ea:TSS-Stress_20201122","BLUE"
1,"red",1,NA,8000,4,"hard",0,"MainBlock","PROLIFIC",NA,NA,"red",717,0,1606161808086,3,"incongruent","5e651a304eb006294c9164ea:TSS-Stress_20201122","YELLOW"
1,"green",1,NA,8000,4,"hard",0,"MainBlock","PROLIFIC",NA,NA,"green",717,0,1606161808806,4,"congruent","5e651a304eb006294c9164ea:TSS-Stress_20201122","GREEN"
1,"blue",1,NA,8000,4,"hard",0,"MainBlock","PROLIFIC",NA,NA,"blue",532,0,1606161809526,5,"congruent","5e651a304eb006294c9164ea:TSS-Stress_20201122","BLUE"
1,"yellow",1,NA,8000,4,"hard",0,"MainBlock","PROLIFIC",NA,NA,"yellow",669,0,1606161810061,6,"incongruent","5e651a304eb006294c9164ea:TSS-Stress_20201122","RED"
1,"blue",1,NA,8000,4,"hard",0,"MainBlock","PROLIFIC",NA,NA,"blue",727,0,1606161810733,7,"incongruent","5e651a304eb006294c9164ea:TSS-Stress_20201122","YELLOW"
1,"red",1,NA,8000,4,"hard",0,"MainBlock","PROLIFIC",NA,NA,"red",583,0,1606161811463,8,"congruent","5e651a304eb006294c9164ea:TSS-Stress_20201122","RED"
1,"yellow",1,NA,8000,4,"hard",0,"MainBlock","PROLIFIC",NA,NA,"yellow",636,0,1606161812050,9,"incongruent","5e651a304eb006294c9164ea:TSS-Stress_20201122","GREEN"
1,"blue",1,NA,8000,4,"hard",0,"MainBlock","PROLIFIC",NA,NA,"blue",549,0,1606161812689,10,"congruent","5e651a304eb006294c9164ea:TSS-Stress_20201122","BLUE"
1,"yellow",1,NA,8000,4,"hard",0,"MainBlock","PROLIFIC",NA,NA,"yellow",644,0,1606161813242,11,"congruent","5e651a304eb006294c9164ea:TSS-Stress_20201122","YELLOW"
1,"",NA,NA,8000,4,"hard",0,"MainBlock","PROLIFIC",0,8.1,"",NA,0,NA,NA,"","5e651a304eb006294c9164ea:TSS-Stress_20201122",""
1,"red",1,NA,8000,5,"hard",0,"MainBlock","PROLIFIC",NA,NA,"red",718,0,1606161822084,1,"incongruent","5e651a304eb006294c9164ea:TSS-Stress_20201122","GREEN"
1,"blue",1,NA,8000,5,"hard",0,"MainBlock","PROLIFIC",NA,NA,"blue",497,0,1606161822805,2,"congruent","5e651a304eb006294c9164ea:TSS-Stress_20201122","BLUE"
1,"green",1,NA,8000,5,"hard",0,"MainBlock","PROLIFIC",NA,NA,"green",445,0,1606161823305,3,"congruent","5e651a304eb006294c9164ea:TSS-Stress_20201122","GREEN"
1,"blue",1,NA,8000,5,"hard",0,"MainBlock","PROLIFIC",NA,NA,"blue",821,0,1606161823753,4,"incongruent","5e651a304eb006294c9164ea:TSS-Stress_20201122","RED"
1,"green",0,NA,8000,5,"hard",0,"MainBlock","PROLIFIC",NA,NA,"yellow",569,0,1606161824577,5,"congruent","5e651a304eb006294c9164ea:TSS-Stress_20201122","GREEN"
1,"blue",1,NA,8000,5,"hard",0,"MainBlock","PROLIFIC",NA,NA,"blue",729,0,1606161825149,6,"incongruent","5e651a304eb006294c9164ea:TSS-Stress_20201122","RED"
1,"red",1,NA,8000,5,"hard",0,"MainBlock","PROLIFIC",NA,NA,"red",660,0,1606161825882,7,"incongruent","5e651a304eb006294c9164ea:TSS-Stress_20201122","YELLOW"
1,"green",1,NA,8000,5,"hard",0,"MainBlock","PROLIFIC",NA,NA,"green",1000,0,1606161826545,8,"incongruent","5e651a304eb006294c9164ea:TSS-Stress_20201122","BLUE"
1,"red",1,NA,8000,5,"hard",0,"MainBlock","PROLIFIC",NA,NA,"red",460,0,1606161827549,9,"congruent","5e651a304eb006294c9164ea:TSS-Stress_20201122","RED"
1,"blue",1,NA,8000,5,"hard",0,"MainBlock","PROLIFIC",NA,NA,"blue",508,0,1606161828013,10,"congruent","5e651a304eb006294c9164ea:TSS-Stress_20201122","BLUE"
1,"yellow",1,NA,8000,5,"hard",0,"MainBlock","PROLIFIC",NA,NA,"yellow",540,0,1606161828525,11,"incongruent","5e651a304eb006294c9164ea:TSS-Stress_20201122","GREEN"
1,"red",1,NA,8000,5,"hard",0,"MainBlock","PROLIFIC",NA,NA,"red",417,0,1606161829069,12,"congruent","5e651a304eb006294c9164ea:TSS-Stress_20201122","RED"
1,"",NA,NA,8000,5,"hard",0,"MainBlock","PROLIFIC",1,2.8,"",NA,0,NA,NA,"","5e651a304eb006294c9164ea:TSS-Stress_20201122",""
1,"green",0,NA,8000,6,"hard",0,"MainBlock","PROLIFIC",NA,NA,"yellow",609,0,1606161837176,1,"congruent","5e651a304eb006294c9164ea:TSS-Stress_20201122","GREEN"
1,"yellow",1,NA,8000,6,"hard",0,"MainBlock","PROLIFIC",NA,NA,"yellow",1185,0,1606161837788,2,"incongruent","5e651a304eb006294c9164ea:TSS-Stress_20201122","BLUE"
1,"green",1,NA,8000,6,"hard",0,"MainBlock","PROLIFIC",NA,NA,"green",721,0,1606161838976,3,"incongruent","5e651a304eb006294c9164ea:TSS-Stress_20201122","RED"
1,"yellow",1,NA,8000,6,"hard",0,"MainBlock","PROLIFIC",NA,NA,"yellow",552,0,1606161839701,4,"congruent","5e651a304eb006294c9164ea:TSS-Stress_20201122","YELLOW"
1,"green",1,NA,8000,6,"hard",0,"MainBlock","PROLIFIC",NA,NA,"green",533,0,1606161840256,5,"congruent","5e651a304eb006294c9164ea:TSS-Stress_20201122","GREEN"
1,"blue",1,NA,8000,6,"hard",0,"MainBlock","PROLIFIC",NA,NA,"blue",497,0,1606161840792,6,"incongruent","5e651a304eb006294c9164ea:TSS-Stress_20201122","YELLOW"
1,"yellow",1,NA,8000,6,"hard",0,"MainBlock","PROLIFIC",NA,NA,"yellow",660,0,1606161841293,7,"incongruent","5e651a304eb006294c9164ea:TSS-Stress_20201122","GREEN"
1,"green",1,NA,8000,6,"hard",0,"MainBlock","PROLIFIC",NA,NA,"green",557,0,1606161841956,8,"incongruent","5e651a304eb006294c9164ea:TSS-Stress_20201122","BLUE"
1,"red",1,NA,8000,6,"hard",0,"MainBlock","PROLIFIC",NA,NA,"red",532,0,1606161842517,9,"incongruent","5e651a304eb006294c9164ea:TSS-Stress_20201122","GREEN"
1,"blue",1,NA,8000,6,"hard",0,"MainBlock","PROLIFIC",NA,NA,"blue",625,0,1606161843053,10,"incongruent","5e651a304eb006294c9164ea:TSS-Stress_20201122","RED"
1,"yellow",1,NA,8000,6,"hard",0,"MainBlock","PROLIFIC",NA,NA,"yellow",793,0,1606161843681,11,"congruent","5e651a304eb006294c9164ea:TSS-Stress_20201122","YELLOW"
1,"blue",0,NA,8000,6,"hard",0,"MainBlock","PROLIFIC",NA,NA,"red",524,0,1606161844477,12,"incongruent","5e651a304eb006294c9164ea:TSS-Stress_20201122","RED"
1,"",NA,NA,8000,6,"hard",0,"MainBlock","PROLIFIC",1,4.1,"",NA,0,NA,NA,"","5e651a304eb006294c9164ea:TSS-Stress_20201122",""
1,"red",1,NA,8000,7,"hard",0,"MainBlock","PROLIFIC",NA,NA,"red",403,0,1606161852782,1,"congruent","5e651a304eb006294c9164ea:TSS-Stress_20201122","RED"
1,"green",1,NA,8000,7,"hard",0,"MainBlock","PROLIFIC",NA,NA,"green",660,0,1606161853188,2,"incongruent","5e651a304eb006294c9164ea:TSS-Stress_20201122","BLUE"
1,"blue",1,NA,8000,7,"hard",0,"MainBlock","PROLIFIC",NA,NA,"blue",504,0,1606161853852,3,"incongruent","5e651a304eb006294c9164ea:TSS-Stress_20201122","RED"
1,"yellow",1,NA,8000,7,"hard",0,"MainBlock","PROLIFIC",NA,NA,"yellow",572,0,1606161854361,4,"incongruent","5e651a304eb006294c9164ea:TSS-Stress_20201122","BLUE"
1,"green",1,NA,8000,7,"hard",0,"MainBlock","PROLIFIC",NA,NA,"green",639,0,1606161854937,5,"congruent","5e651a304eb006294c9164ea:TSS-Stress_20201122","GREEN"
1,"blue",1,NA,8000,7,"hard",0,"MainBlock","PROLIFIC",NA,NA,"blue",640,0,1606161855580,6,"incongruent","5e651a304eb006294c9164ea:TSS-Stress_20201122","RED"
1,"yellow",1,NA,8000,7,"hard",0,"MainBlock","PROLIFIC",NA,NA,"yellow",801,0,1606161856223,7,"congruent","5e651a304eb006294c9164ea:TSS-Stress_20201122","YELLOW"
1,"blue",1,NA,8000,7,"hard",0,"MainBlock","PROLIFIC",NA,NA,"blue",753,0,1606161857028,8,"incongruent","5e651a304eb006294c9164ea:TSS-Stress_20201122","GREEN"
1,"yellow",1,NA,8000,7,"hard",0,"MainBlock","PROLIFIC",NA,NA,"yellow",676,0,1606161857784,9,"congruent","5e651a304eb006294c9164ea:TSS-Stress_20201122","YELLOW"
1,"red",1,NA,8000,7,"hard",0,"MainBlock","PROLIFIC",NA,NA,"red",596,0,1606161858464,10,"incongruent","5e651a304eb006294c9164ea:TSS-Stress_20201122","GREEN"
1,"yellow",1,NA,8000,7,"hard",0,"MainBlock","PROLIFIC",NA,NA,"yellow",548,0,1606161859064,11,"congruent","5e651a304eb006294c9164ea:TSS-Stress_20201122","YELLOW"
1,"blue",1,NA,8000,7,"hard",0,"MainBlock","PROLIFIC",NA,NA,"blue",633,0,1606161859615,12,"incongruent","5e651a304eb006294c9164ea:TSS-Stress_20201122","GREEN"
1,"yellow",1,NA,8000,7,"hard",0,"MainBlock","PROLIFIC",NA,NA,"yellow",478,0,1606161860251,13,"congruent","5e651a304eb006294c9164ea:TSS-Stress_20201122","YELLOW"
1,"",NA,NA,8000,7,"hard",0,"MainBlock","PROLIFIC",0,10,"",NA,0,NA,NA,"","5e651a304eb006294c9164ea:TSS-Stress_20201122",""
1,"red",1,NA,8000,8,"hard",0,"MainBlock","PROLIFIC",NA,NA,"red",519,0,1606161866901,1,"congruent","5e651a304eb006294c9164ea:TSS-Stress_20201122","RED"
1,"blue",1,NA,8000,8,"hard",0,"MainBlock","PROLIFIC",NA,NA,"blue",613,0,1606161867423,2,"incongruent","5e651a304eb006294c9164ea:TSS-Stress_20201122","YELLOW"
1,"green",1,NA,8000,8,"hard",0,"MainBlock","PROLIFIC",NA,NA,"green",525,0,1606161868039,3,"incongruent","5e651a304eb006294c9164ea:TSS-Stress_20201122","BLUE"
1,"blue",1,NA,8000,8,"hard",0,"MainBlock","PROLIFIC",NA,NA,"blue",641,0,1606161868567,4,"incongruent","5e651a304eb006294c9164ea:TSS-Stress_20201122","GREEN"
1,"red",1,NA,8000,8,"hard",0,"MainBlock","PROLIFIC",NA,NA,"red",597,0,1606161869211,5,"congruent","5e651a304eb006294c9164ea:TSS-Stress_20201122","RED"
1,"blue",1,NA,8000,8,"hard",0,"MainBlock","PROLIFIC",NA,NA,"blue",572,0,1606161869812,6,"incongruent","5e651a304eb006294c9164ea:TSS-Stress_20201122","GREEN"
1,"yellow",1,NA,8000,8,"hard",0,"MainBlock","PROLIFIC",NA,NA,"yellow",620,0,1606161870387,7,"congruent","5e651a304eb006294c9164ea:TSS-Stress_20201122","YELLOW"
1,"green",1,NA,8000,8,"hard",0,"MainBlock","PROLIFIC",NA,NA,"green",597,0,1606161871010,8,"incongruent","5e651a304eb006294c9164ea:TSS-Stress_20201122","BLUE"
1,"yellow",1,NA,8000,8,"hard",0,"MainBlock","PROLIFIC",NA,NA,"yellow",704,0,1606161871611,9,"congruent","5e651a304eb006294c9164ea:TSS-Stress_20201122","YELLOW"
1,"red",1,NA,8000,8,"hard",0,"MainBlock","PROLIFIC",NA,NA,"red",513,0,1606161872318,10,"incongruent","5e651a304eb006294c9164ea:TSS-Stress_20201122","GREEN"
1,"blue",1,NA,8000,8,"hard",0,"MainBlock","PROLIFIC",NA,NA,"blue",707,0,1606161872836,11,"incongruent","5e651a304eb006294c9164ea:TSS-Stress_20201122","YELLOW"
1,"green",1,NA,8000,8,"hard",0,"MainBlock","PROLIFIC",NA,NA,"green",613,0,1606161873547,12,"congruent","5e651a304eb006294c9164ea:TSS-Stress_20201122","GREEN"
1,"red",1,NA,8000,8,"hard",0,"MainBlock","PROLIFIC",NA,NA,"red",640,0,1606161874163,13,"incongruent","5e651a304eb006294c9164ea:TSS-Stress_20201122","BLUE"
1,"",NA,NA,8000,8,"hard",0.026,"MainBlock","PROLIFIC",0,10,"",NA,0,NA,NA,"","5e651a304eb006294c9164ea:TSS-Stress_20201122",""
2,"blue",1,NA,8000,1,"easy",0,"MainBlock","PROLIFIC",NA,NA,"blue",668,0,1606161887431,1,"congruent","5e651a304eb006294c9164ea:TSS-Stress_20201122","BLUE"
2,"green",0,NA,8000,1,"easy",0,"MainBlock","PROLIFIC",NA,NA,"yellow",780,0,1606161888102,2,"incongruent","5e651a304eb006294c9164ea:TSS-Stress_20201122","RED"
2,"yellow",1,NA,8000,1,"easy",0,"MainBlock","PROLIFIC",NA,NA,"yellow",981,0,1606161888885,3,"incongruent","5e651a304eb006294c9164ea:TSS-Stress_20201122","GREEN"
2,"red",1,NA,8000,1,"easy",0,"MainBlock","PROLIFIC",NA,NA,"red",501,0,1606161889869,4,"incongruent","5e651a304eb006294c9164ea:TSS-Stress_20201122","YELLOW"
2,"blue",1,NA,8000,1,"easy",0,"MainBlock","PROLIFIC",NA,NA,"blue",663,0,1606161890375,5,"congruent","5e651a304eb006294c9164ea:TSS-Stress_20201122","BLUE"
2,"yellow",1,NA,8000,1,"easy",0,"MainBlock","PROLIFIC",NA,NA,"yellow",665,0,1606161891041,6,"congruent","5e651a304eb006294c9164ea:TSS-Stress_20201122","YELLOW"
2,"green",1,NA,8000,1,"easy",0,"MainBlock","PROLIFIC",NA,NA,"green",909,0,1606161891709,7,"congruent","5e651a304eb006294c9164ea:TSS-Stress_20201122","GREEN"
2,"blue",1,NA,8000,1,"easy",0,"MainBlock","PROLIFIC",NA,NA,"blue",704,0,1606161892622,8,"incongruent","5e651a304eb006294c9164ea:TSS-Stress_20201122","RED"
2,"red",1,NA,8000,1,"easy",0,"MainBlock","PROLIFIC",NA,NA,"red",521,0,1606161893329,9,"incongruent","5e651a304eb006294c9164ea:TSS-Stress_20201122","GREEN"
2,"yellow",1,NA,8000,1,"easy",0,"MainBlock","PROLIFIC",NA,NA,"yellow",429,0,1606161893853,10,"congruent","5e651a304eb006294c9164ea:TSS-Stress_20201122","YELLOW"
2,"red",1,NA,8000,1,"easy",0,"MainBlock","PROLIFIC",NA,NA,"red",745,0,1606161894289,11,"incongruent","5e651a304eb006294c9164ea:TSS-Stress_20201122","GREEN"
2,"",NA,NA,8000,1,"easy",0,"MainBlock","PROLIFIC",0,7.1,"",NA,0,NA,NA,"","5e651a304eb006294c9164ea:TSS-Stress_20201122",""
2,"red",1,NA,8000,2,"easy",0,"MainBlock","PROLIFIC",NA,NA,"red",561,0,1606161904609,1,"incongruent","5e651a304eb006294c9164ea:TSS-Stress_20201122","YELLOW"
2,"blue",1,NA,8000,2,"easy",0,"MainBlock","PROLIFIC",NA,NA,"blue",561,0,1606161905173,2,"congruent","5e651a304eb006294c9164ea:TSS-Stress_20201122","BLUE"
2,"green",1,NA,8000,2,"easy",0,"MainBlock","PROLIFIC",NA,NA,"green",669,0,1606161905736,3,"incongruent","5e651a304eb006294c9164ea:TSS-Stress_20201122","YELLOW"
2,"blue",1,NA,8000,2,"easy",0,"MainBlock","PROLIFIC",NA,NA,"blue",701,0,1606161906408,4,"incongruent","5e651a304eb006294c9164ea:TSS-Stress_20201122","RED"
2,"yellow",1,NA,8000,2,"easy",0,"MainBlock","PROLIFIC",NA,NA,"yellow",573,0,1606161907112,5,"congruent","5e651a304eb006294c9164ea:TSS-Stress_20201122","YELLOW"
2,"green",1,NA,8000,2,"easy",0,"MainBlock","PROLIFIC",NA,NA,"green",628,0,1606161907689,6,"incongruent","5e651a304eb006294c9164ea:TSS-Stress_20201122","BLUE"
2,"red",1,NA,8000,2,"easy",0,"MainBlock","PROLIFIC",NA,NA,"red",605,0,1606161908320,7,"incongruent","5e651a304eb006294c9164ea:TSS-Stress_20201122","YELLOW"
2,"blue",1,NA,8000,2,"easy",0,"MainBlock","PROLIFIC",NA,NA,"blue",625,0,1606161908928,8,"congruent","5e651a304eb006294c9164ea:TSS-Stress_20201122","BLUE"
2,"red",1,NA,8000,2,"easy",0,"MainBlock","PROLIFIC",NA,NA,"red",693,0,1606161909556,9,"congruent","5e651a304eb006294c9164ea:TSS-Stress_20201122","RED"
2,"green",1,NA,8000,2,"easy",0,"MainBlock","PROLIFIC",NA,NA,"green",877,0,1606161910252,10,"congruent","5e651a304eb006294c9164ea:TSS-Stress_20201122","GREEN"
2,"yellow",1,NA,8000,2,"easy",0,"MainBlock","PROLIFIC",NA,NA,"yellow",641,0,1606161911132,11,"congruent","5e651a304eb006294c9164ea:TSS-Stress_20201122","YELLOW"
2,"blue",1,NA,8000,2,"easy",0,"MainBlock","PROLIFIC",NA,NA,"blue",617,0,1606161911776,12,"incongruent","5e651a304eb006294c9164ea:TSS-Stress_20201122","RED"
2,"",NA,NA,8000,2,"easy",0,"MainBlock","PROLIFIC",0,8,"",NA,0,NA,NA,"","5e651a304eb006294c9164ea:TSS-Stress_20201122",""
2,"green",1,NA,8000,3,"easy",0,"MainBlock","PROLIFIC",NA,NA,"green",765,0,1606161919244,1,"incongruent","5e651a304eb006294c9164ea:TSS-Stress_20201122","YELLOW"
2,"red",1,NA,8000,3,"easy",0,"MainBlock","PROLIFIC",NA,NA,"red",522,0,1606161920011,2,"congruent","5e651a304eb006294c9164ea:TSS-Stress_20201122","RED"
2,"yellow",1,NA,8000,3,"easy",0,"MainBlock","PROLIFIC",NA,NA,"yellow",529,0,1606161920536,3,"congruent","5e651a304eb006294c9164ea:TSS-Stress_20201122","YELLOW"
2,"red",1,NA,8000,3,"easy",0,"MainBlock","PROLIFIC",NA,NA,"red",749,0,1606161921068,4,"incongruent","5e651a304eb006294c9164ea:TSS-Stress_20201122","BLUE"
2,"green",1,NA,8000,3,"easy",0,"MainBlock","PROLIFIC",NA,NA,"green",668,0,1606161921820,5,"congruent","5e651a304eb006294c9164ea:TSS-Stress_20201122","GREEN"
2,"yellow",1,NA,8000,3,"easy",0,"MainBlock","PROLIFIC",NA,NA,"yellow",654,0,1606161922491,6,"incongruent","5e651a304eb006294c9164ea:TSS-Stress_20201122","BLUE"
2,"green",1,NA,8000,3,"easy",0,"MainBlock","PROLIFIC",NA,NA,"green",704,0,1606161923148,7,"congruent","5e651a304eb006294c9164ea:TSS-Stress_20201122","GREEN"
2,"blue",1,NA,8000,3,"easy",0,"MainBlock","PROLIFIC",NA,NA,"blue",533,0,1606161923855,8,"incongruent","5e651a304eb006294c9164ea:TSS-Stress_20201122","RED"
2,"yellow",1,NA,8000,3,"easy",0,"MainBlock","PROLIFIC",NA,NA,"yellow",581,0,1606161924391,9,"congruent","5e651a304eb006294c9164ea:TSS-Stress_20201122","YELLOW"
2,"red",1,NA,8000,3,"easy",0,"MainBlock","PROLIFIC",NA,NA,"red",648,0,1606161924976,10,"incongruent","5e651a304eb006294c9164ea:TSS-Stress_20201122","GREEN"
2,"blue",1,NA,8000,3,"easy",0,"MainBlock","PROLIFIC",NA,NA,"blue",529,0,1606161925627,11,"congruent","5e651a304eb006294c9164ea:TSS-Stress_20201122","BLUE"
2,"yellow",1,NA,8000,3,"easy",0,"MainBlock","PROLIFIC",NA,NA,"yellow",841,0,1606161926159,12,"incongruent","5e651a304eb006294c9164ea:TSS-Stress_20201122","RED"
2,"",NA,NA,8000,3,"easy",0,"MainBlock","PROLIFIC",1,1.8,"",NA,0,NA,NA,"","5e651a304eb006294c9164ea:TSS-Stress_20201122",""
2,"green",1,NA,8000,4,"easy",0,"MainBlock","PROLIFIC",NA,NA,"green",877,0,1606161934095,1,"congruent","5e651a304eb006294c9164ea:TSS-Stress_20201122","GREEN"
2,"yellow",1,NA,8000,4,"easy",0,"MainBlock","PROLIFIC",NA,NA,"yellow",477,0,1606161934974,2,"incongruent","5e651a304eb006294c9164ea:TSS-Stress_20201122","BLUE"
2,"green",1,NA,8000,4,"easy",0,"MainBlock","PROLIFIC",NA,NA,"green",512,0,1606161935455,3,"congruent","5e651a304eb006294c9164ea:TSS-Stress_20201122","GREEN"
2,"blue",1,NA,8000,4,"easy",0,"MainBlock","PROLIFIC",NA,NA,"blue",561,0,1606161935971,4,"incongruent","5e651a304eb006294c9164ea:TSS-Stress_20201122","YELLOW"
2,"green",1,NA,8000,4,"easy",0,"MainBlock","PROLIFIC",NA,NA,"green",547,0,1606161936536,5,"congruent","5e651a304eb006294c9164ea:TSS-Stress_20201122","GREEN"
2,"blue",0,NA,8000,4,"easy",0,"MainBlock","PROLIFIC",NA,NA,"yellow",554,0,1606161937086,6,"incongruent","5e651a304eb006294c9164ea:TSS-Stress_20201122","RED"
2,"yellow",1,NA,8000,4,"easy",0,"MainBlock","PROLIFIC",NA,NA,"yellow",737,0,1606161937643,7,"congruent","5e651a304eb006294c9164ea:TSS-Stress_20201122","YELLOW"
2,"green",0,NA,8000,4,"easy",0,"MainBlock","PROLIFIC",NA,NA,"blue",625,0,1606161938383,8,"incongruent","5e651a304eb006294c9164ea:TSS-Stress_20201122","BLUE"
2,"blue",1,NA,8000,4,"easy",0,"MainBlock","PROLIFIC",NA,NA,"blue",549,0,1606161939011,9,"incongruent","5e651a304eb006294c9164ea:TSS-Stress_20201122","RED"
2,"green",1,NA,8000,4,"easy",0,"MainBlock","PROLIFIC",NA,NA,"green",581,0,1606161939567,10,"congruent","5e651a304eb006294c9164ea:TSS-Stress_20201122","GREEN"
2,"yellow",1,NA,8000,4,"easy",0,"MainBlock","PROLIFIC",NA,NA,"yellow",752,0,1606161940151,11,"incongruent","5e651a304eb006294c9164ea:TSS-Stress_20201122","BLUE"
2,"red",1,NA,8000,4,"easy",0,"MainBlock","PROLIFIC",NA,NA,"red",453,0,1606161940906,12,"congruent","5e651a304eb006294c9164ea:TSS-Stress_20201122","RED"
2,"blue",1,NA,8000,4,"easy",0,"MainBlock","PROLIFIC",NA,NA,"blue",553,0,1606161941362,13,"congruent","5e651a304eb006294c9164ea:TSS-Stress_20201122","BLUE"
2,"",NA,NA,8000,4,"easy",0.022,"MainBlock","PROLIFIC",1,4.2,"",NA,0,NA,NA,"","5e651a304eb006294c9164ea:TSS-Stress_20201122",""
2,"yellow",1,NA,8000,5,"easy",0,"MainBlock","PROLIFIC",NA,NA,"yellow",673,0,1606161948686,1,"congruent","5e651a304eb006294c9164ea:TSS-Stress_20201122","YELLOW"
2,"blue",0,NA,8000,5,"easy",0,"MainBlock","PROLIFIC",NA,NA,"red",540,0,1606161949362,2,"incongruent","5e651a304eb006294c9164ea:TSS-Stress_20201122","RED"
2,"red",1,NA,8000,5,"easy",0,"MainBlock","PROLIFIC",NA,NA,"red",1385,0,1606161949905,3,"incongruent","5e651a304eb006294c9164ea:TSS-Stress_20201122","BLUE"
2,"yellow",1,NA,8000,5,"easy",0,"MainBlock","PROLIFIC",NA,NA,"yellow",548,0,1606161951294,4,"congruent","5e651a304eb006294c9164ea:TSS-Stress_20201122","YELLOW"
2,"blue",1,NA,8000,5,"easy",0,"MainBlock","PROLIFIC",NA,NA,"blue",585,0,1606161951845,5,"incongruent","5e651a304eb006294c9164ea:TSS-Stress_20201122","GREEN"
2,"green",1,NA,8000,5,"easy",0,"MainBlock","PROLIFIC",NA,NA,"green",409,0,1606161952434,6,"incongruent","5e651a304eb006294c9164ea:TSS-Stress_20201122","YELLOW"
2,"blue",1,NA,8000,5,"easy",0,"MainBlock","PROLIFIC",NA,NA,"blue",468,0,1606161952846,7,"congruent","5e651a304eb006294c9164ea:TSS-Stress_20201122","BLUE"
2,"green",1,NA,8000,5,"easy",0,"MainBlock","PROLIFIC",NA,NA,"green",557,0,1606161953317,8,"congruent","5e651a304eb006294c9164ea:TSS-Stress_20201122","GREEN"
2,"yellow",1,NA,8000,5,"easy",0,"MainBlock","PROLIFIC",NA,NA,"yellow",473,0,1606161953877,9,"congruent","5e651a304eb006294c9164ea:TSS-Stress_20201122","YELLOW"
2,"red",1,NA,8000,5,"easy",0,"MainBlock","PROLIFIC",NA,NA,"red",478,0,1606161954353,10,"incongruent","5e651a304eb006294c9164ea:TSS-Stress_20201122","BLUE"
2,"green",1,NA,8000,5,"easy",0,"MainBlock","PROLIFIC",NA,NA,"green",961,0,1606161954834,11,"incongruent","5e651a304eb006294c9164ea:TSS-Stress_20201122","YELLOW"
2,"red",1,NA,8000,5,"easy",0,"MainBlock","PROLIFIC",NA,NA,"red",583,0,1606161955800,12,"congruent","5e651a304eb006294c9164ea:TSS-Stress_20201122","RED"
2,"",NA,NA,8000,5,"easy",0,"MainBlock","PROLIFIC",0,4.3,"",NA,0,NA,NA,"","5e651a304eb006294c9164ea:TSS-Stress_20201122",""
2,"green",0,NA,8000,6,"easy",0,"MainBlock","PROLIFIC",NA,NA,"yellow",840,0,1606161963606,1,"congruent","5e651a304eb006294c9164ea:TSS-Stress_20201122","GREEN"
2,"yellow",1,NA,8000,6,"easy",0,"MainBlock","PROLIFIC",NA,NA,"yellow",569,0,1606161964449,2,"incongruent","5e651a304eb006294c9164ea:TSS-Stress_20201122","RED"
2,"green",0,NA,8000,6,"easy",0,"MainBlock","PROLIFIC",NA,NA,"blue",633,0,1606161965021,3,"incongruent","5e651a304eb006294c9164ea:TSS-Stress_20201122","BLUE"
2,"yellow",1,NA,8000,6,"easy",0,"MainBlock","PROLIFIC",NA,NA,"yellow",705,0,1606161965657,4,"incongruent","5e651a304eb006294c9164ea:TSS-Stress_20201122","RED"
2,"green",1,NA,8000,6,"easy",0,"MainBlock","PROLIFIC",NA,NA,"green",532,0,1606161966366,5,"congruent","5e651a304eb006294c9164ea:TSS-Stress_20201122","GREEN"
2,"blue",1,NA,8000,6,"easy",0,"MainBlock","PROLIFIC",NA,NA,"blue",493,0,1606161966901,6,"incongruent","5e651a304eb006294c9164ea:TSS-Stress_20201122","RED"
2,"yellow",1,NA,8000,6,"easy",0,"MainBlock","PROLIFIC",NA,NA,"yellow",859,0,1606161967398,7,"incongruent","5e651a304eb006294c9164ea:TSS-Stress_20201122","GREEN"
2,"red",1,NA,8000,6,"easy",0,"MainBlock","PROLIFIC",NA,NA,"red",552,0,1606161968261,8,"congruent","5e651a304eb006294c9164ea:TSS-Stress_20201122","RED"
2,"yellow",1,NA,8000,6,"easy",0,"MainBlock","PROLIFIC",NA,NA,"yellow",528,0,1606161968817,9,"incongruent","5e651a304eb006294c9164ea:TSS-Stress_20201122","GREEN"
2,"red",1,NA,8000,6,"easy",0,"MainBlock","PROLIFIC",NA,NA,"red",724,0,1606161969350,10,"congruent","5e651a304eb006294c9164ea:TSS-Stress_20201122","RED"
2,"yellow",1,NA,8000,6,"easy",0,"MainBlock","PROLIFIC",NA,NA,"yellow",865,0,1606161970077,11,"congruent","5e651a304eb006294c9164ea:TSS-Stress_20201122","YELLOW"
2,"blue",1,NA,8000,6,"easy",0,"MainBlock","PROLIFIC",NA,NA,"blue",528,0,1606161970945,12,"congruent","5e651a304eb006294c9164ea:TSS-Stress_20201122","BLUE"
2,"",NA,NA,8000,6,"easy",0.02,"MainBlock","PROLIFIC",0,2.8,"",NA,0,NA,NA,"","5e651a304eb006294c9164ea:TSS-Stress_20201122",""
2,"green",1,NA,8000,7,"easy",0,"MainBlock","PROLIFIC",NA,NA,"green",1009,0,1606161978393,1,"congruent","5e651a304eb006294c9164ea:TSS-Stress_20201122","GREEN"
2,"red",1,NA,8000,7,"easy",0,"MainBlock","PROLIFIC",NA,NA,"red",701,0,1606161979404,2,"incongruent","5e651a304eb006294c9164ea:TSS-Stress_20201122","BLUE"
2,"blue",1,NA,8000,7,"easy",0,"MainBlock","PROLIFIC",NA,NA,"blue",605,0,1606161980108,3,"incongruent","5e651a304eb006294c9164ea:TSS-Stress_20201122","GREEN"
2,"red",1,NA,8000,7,"easy",0,"MainBlock","PROLIFIC",NA,NA,"red",581,0,1606161980716,4,"congruent","5e651a304eb006294c9164ea:TSS-Stress_20201122","RED"
2,"green",0,NA,8000,7,"easy",0,"MainBlock","PROLIFIC",NA,NA,"yellow",597,0,1606161981300,5,"congruent","5e651a304eb006294c9164ea:TSS-Stress_20201122","GREEN"
2,"blue",1,NA,8000,7,"easy",0,"MainBlock","PROLIFIC",NA,NA,"blue",723,0,1606161981900,6,"incongruent","5e651a304eb006294c9164ea:TSS-Stress_20201122","YELLOW"
2,"green",1,NA,8000,7,"easy",0,"MainBlock","PROLIFIC",NA,NA,"green",555,0,1606161982626,7,"incongruent","5e651a304eb006294c9164ea:TSS-Stress_20201122","RED"
2,"yellow",1,NA,8000,7,"easy",0,"MainBlock","PROLIFIC",NA,NA,"yellow",517,0,1606161983184,8,"incongruent","5e651a304eb006294c9164ea:TSS-Stress_20201122","GREEN"
2,"blue",1,NA,8000,7,"easy",0,"MainBlock","PROLIFIC",NA,NA,"blue",696,0,1606161983705,9,"incongruent","5e651a304eb006294c9164ea:TSS-Stress_20201122","RED"
2,"yellow",1,NA,8000,7,"easy",0,"MainBlock","PROLIFIC",NA,NA,"yellow",653,0,1606161984404,10,"incongruent","5e651a304eb006294c9164ea:TSS-Stress_20201122","BLUE"
2,"green",1,NA,8000,7,"easy",0,"MainBlock","PROLIFIC",NA,NA,"green",644,0,1606161985064,11,"congruent","5e651a304eb006294c9164ea:TSS-Stress_20201122","GREEN"
2,"blue",1,NA,8000,7,"easy",0,"MainBlock","PROLIFIC",NA,NA,"blue",582,0,1606161985711,12,"incongruent","5e651a304eb006294c9164ea:TSS-Stress_20201122","YELLOW"
2,"",NA,NA,8000,7,"easy",0,"MainBlock","PROLIFIC",1,5,"",NA,0,NA,NA,"","5e651a304eb006294c9164ea:TSS-Stress_20201122",""
2,"blue",0,NA,8000,8,"easy",0,"MainBlock","PROLIFIC",NA,NA,"green",570,0,1606161993018,1,"incongruent","5e651a304eb006294c9164ea:TSS-Stress_20201122","GREEN"
2,"red",0,NA,8000,8,"easy",0,"MainBlock","PROLIFIC",NA,NA,"green",657,0,1606161993591,2,"congruent","5e651a304eb006294c9164ea:TSS-Stress_20201122","RED"
2,"green",1,NA,8000,8,"easy",0,"MainBlock","PROLIFIC",NA,NA,"green",953,0,1606161994251,3,"congruent","5e651a304eb006294c9164ea:TSS-Stress_20201122","GREEN"
2,"red",1,NA,8000,8,"easy",0,"MainBlock","PROLIFIC",NA,NA,"red",625,0,1606161995207,4,"incongruent","5e651a304eb006294c9164ea:TSS-Stress_20201122","BLUE"
2,"yellow",1,NA,8000,8,"easy",0,"MainBlock","PROLIFIC",NA,NA,"yellow",873,0,1606161995835,5,"congruent","5e651a304eb006294c9164ea:TSS-Stress_20201122","YELLOW"
2,"green",1,NA,8000,8,"easy",0,"MainBlock","PROLIFIC",NA,NA,"green",697,0,1606161996711,6,"incongruent","5e651a304eb006294c9164ea:TSS-Stress_20201122","RED"
2,"yellow",1,NA,8000,8,"easy",0,"MainBlock","PROLIFIC",NA,NA,"yellow",740,0,1606161997412,7,"incongruent","5e651a304eb006294c9164ea:TSS-Stress_20201122","GREEN"
2,"blue",1,NA,8000,8,"easy",0,"MainBlock","PROLIFIC",NA,NA,"blue",849,0,1606161998155,8,"incongruent","5e651a304eb006294c9164ea:TSS-Stress_20201122","RED"
2,"yellow",1,NA,8000,8,"easy",0,"MainBlock","PROLIFIC",NA,NA,"yellow",993,0,1606161999007,9,"incongruent","5e651a304eb006294c9164ea:TSS-Stress_20201122","GREEN"
2,"blue",1,NA,8000,8,"easy",0,"MainBlock","PROLIFIC",NA,NA,"blue",521,0,1606162000003,10,"congruent","5e651a304eb006294c9164ea:TSS-Stress_20201122","BLUE"
2,"",NA,NA,8000,8,"easy",0,"MainBlock","PROLIFIC",1,8.7,"",NA,0,NA,NA,"","5e651a304eb006294c9164ea:TSS-Stress_20201122",""
3,"red",1,NA,8000,1,"hard",0,"MainBlock","PROLIFIC",NA,NA,"red",811,0,1606162012561,1,"incongruent","5e651a304eb006294c9164ea:TSS-Stress_20201122","YELLOW"
3,"blue",1,NA,8000,1,"hard",0,"MainBlock","PROLIFIC",NA,NA,"blue",965,0,1606162013375,2,"congruent","5e651a304eb006294c9164ea:TSS-Stress_20201122","BLUE"
3,"red",1,NA,8000,1,"hard",0,"MainBlock","PROLIFIC",NA,NA,"red",601,0,1606162014343,3,"incongruent","5e651a304eb006294c9164ea:TSS-Stress_20201122","YELLOW"
3,"green",1,NA,8000,1,"hard",0,"MainBlock","PROLIFIC",NA,NA,"green",1005,0,1606162014947,4,"congruent","5e651a304eb006294c9164ea:TSS-Stress_20201122","GREEN"
3,"yellow",1,NA,8000,1,"hard",0,"MainBlock","PROLIFIC",NA,NA,"yellow",549,0,1606162015955,5,"incongruent","5e651a304eb006294c9164ea:TSS-Stress_20201122","BLUE"
3,"red",1,NA,8000,1,"hard",0,"MainBlock","PROLIFIC",NA,NA,"red",753,0,1606162016507,6,"incongruent","5e651a304eb006294c9164ea:TSS-Stress_20201122","YELLOW"
3,"green",1,NA,8000,1,"hard",0,"MainBlock","PROLIFIC",NA,NA,"green",1137,0,1606162017263,7,"incongruent","5e651a304eb006294c9164ea:TSS-Stress_20201122","RED"
3,"yellow",0,NA,8000,1,"hard",0,"MainBlock","PROLIFIC",NA,NA,"blue",525,0,1606162018403,8,"congruent","5e651a304eb006294c9164ea:TSS-Stress_20201122","YELLOW"
3,"red",1,NA,8000,1,"hard",0,"MainBlock","PROLIFIC",NA,NA,"red",717,0,1606162018931,9,"congruent","5e651a304eb006294c9164ea:TSS-Stress_20201122","RED"
3,"blue",1,NA,8000,1,"hard",0,"MainBlock","PROLIFIC",NA,NA,"blue",619,0,1606162019652,10,"congruent","5e651a304eb006294c9164ea:TSS-Stress_20201122","BLUE"
3,"",NA,NA,8000,1,"hard",0,"MainBlock","PROLIFIC",1,5.9,"",NA,0,NA,NA,"","5e651a304eb006294c9164ea:TSS-Stress_20201122",""
3,"yellow",0,NA,8000,2,"hard",0,"MainBlock","PROLIFIC",NA,NA,"green",829,0,1606162026887,1,"congruent","5e651a304eb006294c9164ea:TSS-Stress_20201122","YELLOW"
3,"blue",1,NA,8000,2,"hard",0,"MainBlock","PROLIFIC",NA,NA,"blue",868,0,1606162027719,2,"incongruent","5e651a304eb006294c9164ea:TSS-Stress_20201122","GREEN"
3,"red",1,NA,8000,2,"hard",0,"MainBlock","PROLIFIC",NA,NA,"red",625,0,1606162028590,3,"congruent","5e651a304eb006294c9164ea:TSS-Stress_20201122","RED"
3,"blue",1,NA,8000,2,"hard",0,"MainBlock","PROLIFIC",NA,NA,"blue",593,0,1606162029218,4,"incongruent","5e651a304eb006294c9164ea:TSS-Stress_20201122","GREEN"
3,"green",1,NA,8000,2,"hard",0,"MainBlock","PROLIFIC",NA,NA,"green",557,0,1606162029814,5,"incongruent","5e651a304eb006294c9164ea:TSS-Stress_20201122","RED"
3,"yellow",1,NA,8000,2,"hard",0,"MainBlock","PROLIFIC",NA,NA,"yellow",809,0,1606162030374,6,"incongruent","5e651a304eb006294c9164ea:TSS-Stress_20201122","GREEN"
3,"blue",1,NA,8000,2,"hard",0,"MainBlock","PROLIFIC",NA,NA,"blue",649,0,1606162031186,7,"congruent","5e651a304eb006294c9164ea:TSS-Stress_20201122","BLUE"
3,"yellow",1,NA,8000,2,"hard",0,"MainBlock","PROLIFIC",NA,NA,"yellow",633,0,1606162031838,8,"incongruent","5e651a304eb006294c9164ea:TSS-Stress_20201122","GREEN"
3,"blue",0,NA,8000,2,"hard",0,"MainBlock","PROLIFIC",NA,NA,"green",453,0,1606162032474,9,"congruent","5e651a304eb006294c9164ea:TSS-Stress_20201122","BLUE"
3,"yellow",0,NA,8000,2,"hard",0,"MainBlock","PROLIFIC",NA,NA,"blue",339,0,1606162032930,10,"congruent","5e651a304eb006294c9164ea:TSS-Stress_20201122","YELLOW"
3,"red",1,NA,8000,2,"hard",0,"MainBlock","PROLIFIC",NA,NA,"red",711,0,1606162033272,11,"incongruent","5e651a304eb006294c9164ea:TSS-Stress_20201122","GREEN"
3,"",NA,NA,8000,2,"hard",0,"MainBlock","PROLIFIC",0,3.6,"",NA,0,NA,NA,"","5e651a304eb006294c9164ea:TSS-Stress_20201122",""
3,"red",1,NA,8000,3,"hard",0,"MainBlock","PROLIFIC",NA,NA,"red",625,0,1606162042690,1,"incongruent","5e651a304eb006294c9164ea:TSS-Stress_20201122","GREEN"
3,"yellow",1,NA,8000,3,"hard",0,"MainBlock","PROLIFIC",NA,NA,"yellow",617,0,1606162043318,2,"congruent","5e651a304eb006294c9164ea:TSS-Stress_20201122","YELLOW"
3,"blue",1,NA,8000,3,"hard",0,"MainBlock","PROLIFIC",NA,NA,"blue",541,0,1606162043938,3,"congruent","5e651a304eb006294c9164ea:TSS-Stress_20201122","BLUE"
3,"red",1,NA,8000,3,"hard",0,"MainBlock","PROLIFIC",NA,NA,"red",625,0,1606162044482,4,"incongruent","5e651a304eb006294c9164ea:TSS-Stress_20201122","GREEN"
3,"blue",1,NA,8000,3,"hard",0,"MainBlock","PROLIFIC",NA,NA,"blue",869,0,1606162045110,5,"incongruent","5e651a304eb006294c9164ea:TSS-Stress_20201122","RED"
3,"yellow",1,NA,8000,3,"hard",0,"MainBlock","PROLIFIC",NA,NA,"yellow",604,0,1606162045982,6,"congruent","5e651a304eb006294c9164ea:TSS-Stress_20201122","YELLOW"
3,"blue",1,NA,8000,3,"hard",0,"MainBlock","PROLIFIC",NA,NA,"blue",770,0,1606162046592,7,"incongruent","5e651a304eb006294c9164ea:TSS-Stress_20201122","RED"
3,"green",1,NA,8000,3,"hard",0,"MainBlock","PROLIFIC",NA,NA,"green",485,0,1606162047365,8,"congruent","5e651a304eb006294c9164ea:TSS-Stress_20201122","GREEN"
3,"yellow",1,NA,8000,3,"hard",0,"MainBlock","PROLIFIC",NA,NA,"yellow",493,0,1606162047853,9,"congruent","5e651a304eb006294c9164ea:TSS-Stress_20201122","YELLOW"
3,"blue",1,NA,8000,3,"hard",0,"MainBlock","PROLIFIC",NA,NA,"blue",589,0,1606162048349,10,"incongruent","5e651a304eb006294c9164ea:TSS-Stress_20201122","RED"
3,"green",1,NA,8000,3,"hard",0,"MainBlock","PROLIFIC",NA,NA,"green",804,0,1606162048942,11,"congruent","5e651a304eb006294c9164ea:TSS-Stress_20201122","GREEN"
3,"yellow",1,NA,8000,3,"hard",0,"MainBlock","PROLIFIC",NA,NA,"yellow",625,0,1606162049749,12,"incongruent","5e651a304eb006294c9164ea:TSS-Stress_20201122","RED"
3,"",NA,NA,8000,3,"hard",0,"MainBlock","PROLIFIC",0,7.4,"",NA,0,NA,NA,"","5e651a304eb006294c9164ea:TSS-Stress_20201122",""
3,"blue",1,NA,8000,4,"hard",0,"MainBlock","PROLIFIC",NA,NA,"blue",527,0,1606162056663,1,"congruent","5e651a304eb006294c9164ea:TSS-Stress_20201122","BLUE"
3,"red",1,NA,8000,4,"hard",0,"MainBlock","PROLIFIC",NA,NA,"red",549,0,1606162057193,2,"incongruent","5e651a304eb006294c9164ea:TSS-Stress_20201122","GREEN"
3,"green",1,NA,8000,4,"hard",0,"MainBlock","PROLIFIC",NA,NA,"green",658,0,1606162057744,3,"incongruent","5e651a304eb006294c9164ea:TSS-Stress_20201122","YELLOW"
3,"blue",1,NA,8000,4,"hard",0,"MainBlock","PROLIFIC",NA,NA,"blue",641,0,1606162058405,4,"congruent","5e651a304eb006294c9164ea:TSS-Stress_20201122","BLUE"
3,"red",1,NA,8000,4,"hard",0,"MainBlock","PROLIFIC",NA,NA,"red",596,0,1606162059050,5,"incongruent","5e651a304eb006294c9164ea:TSS-Stress_20201122","GREEN"
3,"yellow",1,NA,8000,4,"hard",0,"MainBlock","PROLIFIC",NA,NA,"yellow",509,0,1606162059649,6,"congruent","5e651a304eb006294c9164ea:TSS-Stress_20201122","YELLOW"
3,"red",1,NA,8000,4,"hard",0,"MainBlock","PROLIFIC",NA,NA,"red",645,0,1606162060161,7,"congruent","5e651a304eb006294c9164ea:TSS-Stress_20201122","RED"
3,"yellow",1,NA,8000,4,"hard",0,"MainBlock","PROLIFIC",NA,NA,"yellow",737,0,1606162060809,8,"incongruent","5e651a304eb006294c9164ea:TSS-Stress_20201122","GREEN"
3,"green",1,NA,8000,4,"hard",0,"MainBlock","PROLIFIC",NA,NA,"green",813,0,1606162061549,9,"incongruent","5e651a304eb006294c9164ea:TSS-Stress_20201122","RED"
3,"red",1,NA,8000,4,"hard",0,"MainBlock","PROLIFIC",NA,NA,"red",689,0,1606162062365,10,"incongruent","5e651a304eb006294c9164ea:TSS-Stress_20201122","BLUE"
3,"blue",1,NA,8000,4,"hard",0,"MainBlock","PROLIFIC",NA,NA,"blue",648,0,1606162063057,11,"incongruent","5e651a304eb006294c9164ea:TSS-Stress_20201122","GREEN"
3,"yellow",1,NA,8000,4,"hard",0,"MainBlock","PROLIFIC",NA,NA,"yellow",520,0,1606162063709,12,"congruent","5e651a304eb006294c9164ea:TSS-Stress_20201122","YELLOW"
3,"",NA,NA,8000,4,"hard",0,"MainBlock","PROLIFIC",1,2.3,"",NA,0,NA,NA,"","5e651a304eb006294c9164ea:TSS-Stress_20201122",""
3,"green",1,NA,8000,5,"hard",0,"MainBlock","PROLIFIC",NA,NA,"green",799,0,1606162072926,1,"incongruent","5e651a304eb006294c9164ea:TSS-Stress_20201122","RED"
3,"yellow",1,NA,8000,5,"hard",0,"MainBlock","PROLIFIC",NA,NA,"yellow",509,0,1606162073727,2,"congruent","5e651a304eb006294c9164ea:TSS-Stress_20201122","YELLOW"
3,"green",1,NA,8000,5,"hard",0,"MainBlock","PROLIFIC",NA,NA,"green",505,0,1606162074239,3,"congruent","5e651a304eb006294c9164ea:TSS-Stress_20201122","GREEN"
3,"blue",1,NA,8000,5,"hard",0,"MainBlock","PROLIFIC",NA,NA,"blue",561,0,1606162074747,4,"incongruent","5e651a304eb006294c9164ea:TSS-Stress_20201122","YELLOW"
3,"red",1,NA,8000,5,"hard",0,"MainBlock","PROLIFIC",NA,NA,"red",461,0,1606162075311,5,"congruent","5e651a304eb006294c9164ea:TSS-Stress_20201122","RED"
3,"blue",1,NA,8000,5,"hard",0,"MainBlock","PROLIFIC",NA,NA,"blue",669,0,1606162075775,6,"incongruent","5e651a304eb006294c9164ea:TSS-Stress_20201122","GREEN"
3,"red",1,NA,8000,5,"hard",0,"MainBlock","PROLIFIC",NA,NA,"red",776,0,1606162076447,7,"incongruent","5e651a304eb006294c9164ea:TSS-Stress_20201122","YELLOW"
3,"yellow",1,NA,8000,5,"hard",0,"MainBlock","PROLIFIC",NA,NA,"yellow",626,0,1606162077226,8,"incongruent","5e651a304eb006294c9164ea:TSS-Stress_20201122","RED"
3,"blue",1,NA,8000,5,"hard",0,"MainBlock","PROLIFIC",NA,NA,"blue",839,0,1606162077857,9,"incongruent","5e651a304eb006294c9164ea:TSS-Stress_20201122","YELLOW"
3,"yellow",1,NA,8000,5,"hard",0,"MainBlock","PROLIFIC",NA,NA,"yellow",768,0,1606162078700,10,"incongruent","5e651a304eb006294c9164ea:TSS-Stress_20201122","GREEN"
3,"blue",1,NA,8000,5,"hard",0,"MainBlock","PROLIFIC",NA,NA,"blue",629,0,1606162079471,11,"congruent","5e651a304eb006294c9164ea:TSS-Stress_20201122","BLUE"
3,"yellow",0,NA,8000,5,"hard",0,"MainBlock","PROLIFIC",NA,NA,"green",545,0,1606162080103,12,"incongruent","5e651a304eb006294c9164ea:TSS-Stress_20201122","GREEN"
3,"blue",0,NA,8000,5,"hard",0,"MainBlock","PROLIFIC",NA,NA,"yellow",52,0,1606162080652,13,"congruent","5e651a304eb006294c9164ea:TSS-Stress_20201122","BLUE"
3,"",NA,NA,8000,5,"hard",0,"MainBlock","PROLIFIC",0,5.6,"",NA,0,NA,NA,"","5e651a304eb006294c9164ea:TSS-Stress_20201122",""
3,"blue",1,NA,8000,6,"hard",0,"MainBlock","PROLIFIC",NA,NA,"blue",508,0,1606162089455,1,"congruent","5e651a304eb006294c9164ea:TSS-Stress_20201122","BLUE"
3,"red",1,NA,8000,6,"hard",0,"MainBlock","PROLIFIC",NA,NA,"red",500,0,1606162089967,2,"incongruent","5e651a304eb006294c9164ea:TSS-Stress_20201122","YELLOW"
3,"green",1,NA,8000,6,"hard",0,"MainBlock","PROLIFIC",NA,NA,"green",841,0,1606162090470,3,"incongruent","5e651a304eb006294c9164ea:TSS-Stress_20201122","RED"
3,"blue",1,NA,8000,6,"hard",0,"MainBlock","PROLIFIC",NA,NA,"blue",761,0,1606162091314,4,"congruent","5e651a304eb006294c9164ea:TSS-Stress_20201122","BLUE"
3,"red",0,NA,8000,6,"hard",0,"MainBlock","PROLIFIC",NA,NA,"yellow",969,0,1606162092078,5,"incongruent","5e651a304eb006294c9164ea:TSS-Stress_20201122","YELLOW"
3,"yellow",1,NA,8000,6,"hard",0,"MainBlock","PROLIFIC",NA,NA,"yellow",596,0,1606162093051,6,"incongruent","5e651a304eb006294c9164ea:TSS-Stress_20201122","RED"
3,"green",1,NA,8000,6,"hard",0,"MainBlock","PROLIFIC",NA,NA,"green",781,0,1606162093650,7,"incongruent","5e651a304eb006294c9164ea:TSS-Stress_20201122","YELLOW"
3,"blue",1,NA,8000,6,"hard",0,"MainBlock","PROLIFIC",NA,NA,"blue",465,0,1606162094434,8,"congruent","5e651a304eb006294c9164ea:TSS-Stress_20201122","BLUE"
3,"green",1,NA,8000,6,"hard",0,"MainBlock","PROLIFIC",NA,NA,"green",780,0,1606162094903,9,"congruent","5e651a304eb006294c9164ea:TSS-Stress_20201122","GREEN"
3,"red",1,NA,8000,6,"hard",0,"MainBlock","PROLIFIC",NA,NA,"red",576,0,1606162095687,10,"congruent","5e651a304eb006294c9164ea:TSS-Stress_20201122","RED"
3,"yellow",1,NA,8000,6,"hard",0,"MainBlock","PROLIFIC",NA,NA,"yellow",557,0,1606162096266,11,"incongruent","5e651a304eb006294c9164ea:TSS-Stress_20201122","BLUE"
3,"",NA,NA,8000,6,"hard",0,"MainBlock","PROLIFIC",1,4.2,"",NA,0,NA,NA,"","5e651a304eb006294c9164ea:TSS-Stress_20201122",""
3,"blue",1,NA,8000,7,"hard",0,"MainBlock","PROLIFIC",NA,NA,"blue",769,0,1606162104950,1,"congruent","5e651a304eb006294c9164ea:TSS-Stress_20201122","BLUE"
3,"red",1,NA,8000,7,"hard",0,"MainBlock","PROLIFIC",NA,NA,"red",557,0,1606162105722,2,"incongruent","5e651a304eb006294c9164ea:TSS-Stress_20201122","GREEN"
3,"blue",1,NA,8000,7,"hard",0,"MainBlock","PROLIFIC",NA,NA,"blue",729,0,1606162106282,3,"incongruent","5e651a304eb006294c9164ea:TSS-Stress_20201122","RED"
3,"yellow",1,NA,8000,7,"hard",0,"MainBlock","PROLIFIC",NA,NA,"yellow",528,0,1606162107014,4,"congruent","5e651a304eb006294c9164ea:TSS-Stress_20201122","YELLOW"
3,"green",1,NA,8000,7,"hard",0,"MainBlock","PROLIFIC",NA,NA,"green",541,0,1606162107545,5,"incongruent","5e651a304eb006294c9164ea:TSS-Stress_20201122","BLUE"
3,"red",1,NA,8000,7,"hard",0,"MainBlock","PROLIFIC",NA,NA,"red",520,0,1606162108089,6,"congruent","5e651a304eb006294c9164ea:TSS-Stress_20201122","RED"
3,"yellow",1,NA,8000,7,"hard",0,"MainBlock","PROLIFIC",NA,NA,"yellow",522,0,1606162108612,7,"congruent","5e651a304eb006294c9164ea:TSS-Stress_20201122","YELLOW"
3,"red",1,NA,8000,7,"hard",0,"MainBlock","PROLIFIC",NA,NA,"red",709,0,1606162109137,8,"incongruent","5e651a304eb006294c9164ea:TSS-Stress_20201122","GREEN"
3,"yellow",1,NA,8000,7,"hard",0,"MainBlock","PROLIFIC",NA,NA,"yellow",776,0,1606162109850,9,"congruent","5e651a304eb006294c9164ea:TSS-Stress_20201122","YELLOW"
3,"blue",1,NA,8000,7,"hard",0,"MainBlock","PROLIFIC",NA,NA,"blue",665,0,1606162110629,10,"incongruent","5e651a304eb006294c9164ea:TSS-Stress_20201122","GREEN"
3,"red",1,NA,8000,7,"hard",0,"MainBlock","PROLIFIC",NA,NA,"red",653,0,1606162111297,11,"incongruent","5e651a304eb006294c9164ea:TSS-Stress_20201122","BLUE"
3,"green",1,NA,8000,7,"hard",0,"MainBlock","PROLIFIC",NA,NA,"green",552,0,1606162111954,12,"congruent","5e651a304eb006294c9164ea:TSS-Stress_20201122","GREEN"
3,"",NA,NA,8000,7,"hard",0.024,"MainBlock","PROLIFIC",0,7,"",NA,0,NA,NA,"","5e651a304eb006294c9164ea:TSS-Stress_20201122",""
3,"yellow",1,NA,8000,8,"hard",0,"MainBlock","PROLIFIC",NA,NA,"yellow",716,0,1606162119442,1,"incongruent","5e651a304eb006294c9164ea:TSS-Stress_20201122","BLUE"
3,"red",1,NA,8000,8,"hard",0,"MainBlock","PROLIFIC",NA,NA,"red",733,0,1606162120161,2,"congruent","5e651a304eb006294c9164ea:TSS-Stress_20201122","RED"
3,"green",1,NA,8000,8,"hard",0,"MainBlock","PROLIFIC",NA,NA,"green",629,0,1606162120897,3,"congruent","5e651a304eb006294c9164ea:TSS-Stress_20201122","GREEN"
3,"red",1,NA,8000,8,"hard",0,"MainBlock","PROLIFIC",NA,NA,"red",633,0,1606162121529,4,"incongruent","5e651a304eb006294c9164ea:TSS-Stress_20201122","BLUE"
3,"green",1,NA,8000,8,"hard",0,"MainBlock","PROLIFIC",NA,NA,"green",653,0,1606162122165,5,"congruent","5e651a304eb006294c9164ea:TSS-Stress_20201122","GREEN"
3,"yellow",1,NA,8000,8,"hard",0,"MainBlock","PROLIFIC",NA,NA,"yellow",733,0,1606162122821,6,"incongruent","5e651a304eb006294c9164ea:TSS-Stress_20201122","RED"
3,"green",1,NA,8000,8,"hard",0,"MainBlock","PROLIFIC",NA,NA,"green",641,0,1606162123557,7,"congruent","5e651a304eb006294c9164ea:TSS-Stress_20201122","GREEN"
3,"red",1,NA,8000,8,"hard",0,"MainBlock","PROLIFIC",NA,NA,"red",588,0,1606162124202,8,"incongruent","5e651a304eb006294c9164ea:TSS-Stress_20201122","BLUE"
3,"yellow",1,NA,8000,8,"hard",0,"MainBlock","PROLIFIC",NA,NA,"yellow",628,0,1606162124793,9,"congruent","5e651a304eb006294c9164ea:TSS-Stress_20201122","YELLOW"
3,"green",1,NA,8000,8,"hard",0,"MainBlock","PROLIFIC",NA,NA,"green",905,0,1606162125424,10,"incongruent","5e651a304eb006294c9164ea:TSS-Stress_20201122","RED"
3,"yellow",1,NA,8000,8,"hard",0,"MainBlock","PROLIFIC",NA,NA,"yellow",879,0,1606162126334,11,"incongruent","5e651a304eb006294c9164ea:TSS-Stress_20201122","BLUE"
3,"",NA,NA,8000,8,"hard",0.022,"MainBlock","PROLIFIC",1,1.8,"",NA,0,NA,NA,"","5e651a304eb006294c9164ea:TSS-Stress_20201122",""
4,"blue",1,NA,8000,1,"easy",0,"MainBlock","PROLIFIC",NA,NA,"blue",754,0,1606162139892,1,"incongruent","5e651a304eb006294c9164ea:TSS-Stress_20201122","YELLOW"
4,"red",1,NA,8000,1,"easy",0,"MainBlock","PROLIFIC",NA,NA,"red",544,0,1606162140649,2,"congruent","5e651a304eb006294c9164ea:TSS-Stress_20201122","RED"
4,"green",1,NA,8000,1,"easy",0,"MainBlock","PROLIFIC",NA,NA,"green",867,0,1606162141196,3,"incongruent","5e651a304eb006294c9164ea:TSS-Stress_20201122","YELLOW"
4,"red",1,NA,8000,1,"easy",0,"MainBlock","PROLIFIC",NA,NA,"red",615,0,1606162142066,4,"congruent","5e651a304eb006294c9164ea:TSS-Stress_20201122","RED"
4,"blue",1,NA,8000,1,"easy",0,"MainBlock","PROLIFIC",NA,NA,"blue",849,0,1606162142684,5,"congruent","5e651a304eb006294c9164ea:TSS-Stress_20201122","BLUE"
4,"yellow",1,NA,8000,1,"easy",0,"MainBlock","PROLIFIC",NA,NA,"yellow",581,0,1606162143536,6,"incongruent","5e651a304eb006294c9164ea:TSS-Stress_20201122","RED"
4,"red",1,NA,8000,1,"easy",0,"MainBlock","PROLIFIC",NA,NA,"red",445,0,1606162144120,7,"incongruent","5e651a304eb006294c9164ea:TSS-Stress_20201122","BLUE"
4,"green",1,NA,8000,1,"easy",0,"MainBlock","PROLIFIC",NA,NA,"green",629,0,1606162144568,8,"congruent","5e651a304eb006294c9164ea:TSS-Stress_20201122","GREEN"
4,"red",1,NA,8000,1,"easy",0,"MainBlock","PROLIFIC",NA,NA,"red",760,0,1606162145201,9,"incongruent","5e651a304eb006294c9164ea:TSS-Stress_20201122","YELLOW"
4,"blue",1,NA,8000,1,"easy",0,"MainBlock","PROLIFIC",NA,NA,"blue",493,0,1606162145964,10,"congruent","5e651a304eb006294c9164ea:TSS-Stress_20201122","BLUE"
4,"green",0,NA,8000,1,"easy",0,"MainBlock","PROLIFIC",NA,NA,"yellow",589,0,1606162146460,11,"incongruent","5e651a304eb006294c9164ea:TSS-Stress_20201122","YELLOW"
4,"yellow",1,NA,8000,1,"easy",0,"MainBlock","PROLIFIC",NA,NA,"yellow",613,0,1606162147056,12,"incongruent","5e651a304eb006294c9164ea:TSS-Stress_20201122","GREEN"
4,"",NA,NA,8000,1,"easy",0,"MainBlock","PROLIFIC",1,2.8,"",NA,0,NA,NA,"","5e651a304eb006294c9164ea:TSS-Stress_20201122",""
4,"yellow",1,NA,8000,2,"easy",0,"MainBlock","PROLIFIC",NA,NA,"yellow",750,0,1606162153971,1,"congruent","5e651a304eb006294c9164ea:TSS-Stress_20201122","YELLOW"
4,"red",1,NA,8000,2,"easy",0,"MainBlock","PROLIFIC",NA,NA,"red",580,0,1606162154724,2,"incongruent","5e651a304eb006294c9164ea:TSS-Stress_20201122","BLUE"
4,"green",1,NA,8000,2,"easy",0,"MainBlock","PROLIFIC",NA,NA,"green",569,0,1606162155307,3,"congruent","5e651a304eb006294c9164ea:TSS-Stress_20201122","GREEN"
4,"blue",1,NA,8000,2,"easy",0,"MainBlock","PROLIFIC",NA,NA,"blue",477,0,1606162155879,4,"incongruent","5e651a304eb006294c9164ea:TSS-Stress_20201122","YELLOW"
4,"red",1,NA,8000,2,"easy",0,"MainBlock","PROLIFIC",NA,NA,"red",810,0,1606162156359,5,"incongruent","5e651a304eb006294c9164ea:TSS-Stress_20201122","BLUE"
4,"yellow",1,NA,8000,2,"easy",0,"MainBlock","PROLIFIC",NA,NA,"yellow",441,0,1606162157172,6,"incongruent","5e651a304eb006294c9164ea:TSS-Stress_20201122","RED"
4,"blue",1,NA,8000,2,"easy",0,"MainBlock","PROLIFIC",NA,NA,"blue",565,0,1606162157616,7,"congruent","5e651a304eb006294c9164ea:TSS-Stress_20201122","BLUE"
4,"green",1,NA,8000,2,"easy",0,"MainBlock","PROLIFIC",NA,NA,"green",425,0,1606162158184,8,"congruent","5e651a304eb006294c9164ea:TSS-Stress_20201122","GREEN"
4,"yellow",1,NA,8000,2,"easy",0,"MainBlock","PROLIFIC",NA,NA,"yellow",614,0,1606162158612,9,"congruent","5e651a304eb006294c9164ea:TSS-Stress_20201122","YELLOW"
4,"blue",1,NA,8000,2,"easy",0,"MainBlock","PROLIFIC",NA,NA,"blue",755,0,1606162159233,10,"incongruent","5e651a304eb006294c9164ea:TSS-Stress_20201122","GREEN"
4,"red",1,NA,8000,2,"easy",0,"MainBlock","PROLIFIC",NA,NA,"red",701,0,1606162159991,11,"incongruent","5e651a304eb006294c9164ea:TSS-Stress_20201122","YELLOW"
4,"green",0,NA,8000,2,"easy",0,"MainBlock","PROLIFIC",NA,NA,"yellow",448,0,1606162160696,12,"congruent","5e651a304eb006294c9164ea:TSS-Stress_20201122","GREEN"
4,"yellow",0,NA,8000,2,"easy",0,"MainBlock","PROLIFIC",NA,NA,"green",357,0,1606162161147,13,"incongruent","5e651a304eb006294c9164ea:TSS-Stress_20201122","BLUE"
4,"",NA,NA,8000,2,"easy",0.022,"MainBlock","PROLIFIC",0,6.5,"",NA,0,NA,NA,"","5e651a304eb006294c9164ea:TSS-Stress_20201122",""
4,"red",1,NA,8000,3,"easy",0,"MainBlock","PROLIFIC",NA,NA,"red",818,0,1606162169250,1,"incongruent","5e651a304eb006294c9164ea:TSS-Stress_20201122","BLUE"
4,"green",1,NA,8000,3,"easy",0,"MainBlock","PROLIFIC",NA,NA,"green",645,0,1606162170070,2,"congruent","5e651a304eb006294c9164ea:TSS-Stress_20201122","GREEN"
4,"red",1,NA,8000,3,"easy",0,"MainBlock","PROLIFIC",NA,NA,"red",553,0,1606162170719,3,"congruent","5e651a304eb006294c9164ea:TSS-Stress_20201122","RED"
4,"blue",1,NA,8000,3,"easy",0,"MainBlock","PROLIFIC",NA,NA,"blue",593,0,1606162171274,4,"incongruent","5e651a304eb006294c9164ea:TSS-Stress_20201122","YELLOW"
4,"green",1,NA,8000,3,"easy",0,"MainBlock","PROLIFIC",NA,NA,"green",1045,0,1606162171871,5,"congruent","5e651a304eb006294c9164ea:TSS-Stress_20201122","GREEN"
4,"yellow",1,NA,8000,3,"easy",0,"MainBlock","PROLIFIC",NA,NA,"yellow",508,0,1606162172919,6,"incongruent","5e651a304eb006294c9164ea:TSS-Stress_20201122","BLUE"
4,"green",0,NA,8000,3,"easy",0,"MainBlock","PROLIFIC",NA,NA,"blue",497,0,1606162173430,7,"congruent","5e651a304eb006294c9164ea:TSS-Stress_20201122","GREEN"
4,"red",1,NA,8000,3,"easy",0,"MainBlock","PROLIFIC",NA,NA,"red",781,0,1606162173931,8,"incongruent","5e651a304eb006294c9164ea:TSS-Stress_20201122","BLUE"
4,"green",1,NA,8000,3,"easy",0,"MainBlock","PROLIFIC",NA,NA,"green",1157,0,1606162174715,9,"congruent","5e651a304eb006294c9164ea:TSS-Stress_20201122","GREEN"
4,"blue",1,NA,8000,3,"easy",0,"MainBlock","PROLIFIC",NA,NA,"blue",673,0,1606162175875,10,"incongruent","5e651a304eb006294c9164ea:TSS-Stress_20201122","RED"
4,"",NA,NA,8000,3,"easy",0,"MainBlock","PROLIFIC",0,6.7,"",NA,0,NA,NA,"","5e651a304eb006294c9164ea:TSS-Stress_20201122",""
4,"green",1,NA,8000,4,"easy",0,"MainBlock","PROLIFIC",NA,NA,"green",1614,0,1606162183466,1,"congruent","5e651a304eb006294c9164ea:TSS-Stress_20201122","GREEN"
4,"yellow",1,NA,8000,4,"easy",0,"MainBlock","PROLIFIC",NA,NA,"yellow",613,0,1606162185082,2,"incongruent","5e651a304eb006294c9164ea:TSS-Stress_20201122","RED"
4,"blue",1,NA,8000,4,"easy",0,"MainBlock","PROLIFIC",NA,NA,"blue",608,0,1606162185698,3,"congruent","5e651a304eb006294c9164ea:TSS-Stress_20201122","BLUE"
4,"red",1,NA,8000,4,"easy",0,"MainBlock","PROLIFIC",NA,NA,"red",669,0,1606162186309,4,"incongruent","5e651a304eb006294c9164ea:TSS-Stress_20201122","YELLOW"
4,"green",1,NA,8000,4,"easy",0,"MainBlock","PROLIFIC",NA,NA,"green",564,0,1606162186982,5,"congruent","5e651a304eb006294c9164ea:TSS-Stress_20201122","GREEN"
4,"red",1,NA,8000,4,"easy",0,"MainBlock","PROLIFIC",NA,NA,"red",708,0,1606162187550,6,"incongruent","5e651a304eb006294c9164ea:TSS-Stress_20201122","YELLOW"
4,"green",1,NA,8000,4,"easy",0,"MainBlock","PROLIFIC",NA,NA,"green",814,0,1606162188261,7,"congruent","5e651a304eb006294c9164ea:TSS-Stress_20201122","GREEN"
4,"yellow",1,NA,8000,4,"easy",0,"MainBlock","PROLIFIC",NA,NA,"yellow",541,0,1606162189078,8,"incongruent","5e651a304eb006294c9164ea:TSS-Stress_20201122","BLUE"
4,"green",1,NA,8000,4,"easy",0,"MainBlock","PROLIFIC",NA,NA,"green",738,0,1606162189624,9,"congruent","5e651a304eb006294c9164ea:TSS-Stress_20201122","GREEN"
4,"blue",1,NA,8000,4,"easy",0,"MainBlock","PROLIFIC",NA,NA,"blue",469,0,1606162190365,10,"incongruent","5e651a304eb006294c9164ea:TSS-Stress_20201122","RED"
4,"",NA,NA,8000,4,"easy",0,"MainBlock","PROLIFIC",1,3.7,"",NA,0,NA,NA,"","5e651a304eb006294c9164ea:TSS-Stress_20201122",""
4,"green",1,NA,8000,5,"easy",0,"MainBlock","PROLIFIC",NA,NA,"green",918,0,1606162199153,1,"incongruent","5e651a304eb006294c9164ea:TSS-Stress_20201122","YELLOW"
4,"red",1,NA,8000,5,"easy",0,"MainBlock","PROLIFIC",NA,NA,"red",488,0,1606162200074,2,"congruent","5e651a304eb006294c9164ea:TSS-Stress_20201122","RED"
4,"blue",1,NA,8000,5,"easy",0,"MainBlock","PROLIFIC",NA,NA,"blue",741,0,1606162200565,3,"incongruent","5e651a304eb006294c9164ea:TSS-Stress_20201122","GREEN"
4,"red",1,NA,8000,5,"easy",0,"MainBlock","PROLIFIC",NA,NA,"red",749,0,1606162201309,4,"congruent","5e651a304eb006294c9164ea:TSS-Stress_20201122","RED"
4,"blue",1,NA,8000,5,"easy",0,"MainBlock","PROLIFIC",NA,NA,"blue",893,0,1606162202061,5,"incongruent","5e651a304eb006294c9164ea:TSS-Stress_20201122","YELLOW"
4,"red",1,NA,8000,5,"easy",0,"MainBlock","PROLIFIC",NA,NA,"red",489,0,1606162202957,6,"congruent","5e651a304eb006294c9164ea:TSS-Stress_20201122","RED"
4,"green",1,NA,8000,5,"easy",0,"MainBlock","PROLIFIC",NA,NA,"green",568,0,1606162203449,7,"congruent","5e651a304eb006294c9164ea:TSS-Stress_20201122","GREEN"
4,"yellow",1,NA,8000,5,"easy",0,"MainBlock","PROLIFIC",NA,NA,"yellow",441,0,1606162204020,8,"incongruent","5e651a304eb006294c9164ea:TSS-Stress_20201122","RED"
4,"blue",1,NA,8000,5,"easy",0,"MainBlock","PROLIFIC",NA,NA,"blue",745,0,1606162204464,9,"incongruent","5e651a304eb006294c9164ea:TSS-Stress_20201122","GREEN"
4,"red",1,NA,8000,5,"easy",0,"MainBlock","PROLIFIC",NA,NA,"red",583,0,1606162205214,10,"incongruent","5e651a304eb006294c9164ea:TSS-Stress_20201122","BLUE"
4,"blue",0,NA,8000,5,"easy",0,"MainBlock","PROLIFIC",NA,NA,"green",672,0,1606162205801,11,"incongruent","5e651a304eb006294c9164ea:TSS-Stress_20201122","GREEN"
4,"green",1,NA,8000,5,"easy",0,"MainBlock","PROLIFIC",NA,NA,"green",628,0,1606162206477,12,"incongruent","5e651a304eb006294c9164ea:TSS-Stress_20201122","RED"
4,"",NA,NA,8000,5,"easy",0.022,"MainBlock","PROLIFIC",0,6.1,"",NA,0,NA,NA,"","5e651a304eb006294c9164ea:TSS-Stress_20201122",""
4,"green",1,NA,8000,6,"easy",0,"MainBlock","PROLIFIC",NA,NA,"green",985,0,1606162214264,1,"congruent","5e651a304eb006294c9164ea:TSS-Stress_20201122","GREEN"
4,"yellow",1,NA,8000,6,"easy",0,"MainBlock","PROLIFIC",NA,NA,"yellow",918,0,1606162215251,2,"incongruent","5e651a304eb006294c9164ea:TSS-Stress_20201122","BLUE"
4,"blue",1,NA,8000,6,"easy",0,"MainBlock","PROLIFIC",NA,NA,"blue",766,0,1606162216171,3,"incongruent","5e651a304eb006294c9164ea:TSS-Stress_20201122","YELLOW"
4,"green",1,NA,8000,6,"easy",0,"MainBlock","PROLIFIC",NA,NA,"green",785,0,1606162216940,4,"incongruent","5e651a304eb006294c9164ea:TSS-Stress_20201122","RED"
4,"blue",1,NA,8000,6,"easy",0,"MainBlock","PROLIFIC",NA,NA,"blue",585,0,1606162217728,5,"congruent","5e651a304eb006294c9164ea:TSS-Stress_20201122","BLUE"
4,"green",1,NA,8000,6,"easy",0,"MainBlock","PROLIFIC",NA,NA,"green",537,0,1606162218316,6,"incongruent","5e651a304eb006294c9164ea:TSS-Stress_20201122","YELLOW"
4,"blue",1,NA,8000,6,"easy",0,"MainBlock","PROLIFIC",NA,NA,"blue",409,0,1606162218856,7,"congruent","5e651a304eb006294c9164ea:TSS-Stress_20201122","BLUE"
4,"green",1,NA,8000,6,"easy",0,"MainBlock","PROLIFIC",NA,NA,"green",413,0,1606162219268,8,"congruent","5e651a304eb006294c9164ea:TSS-Stress_20201122","GREEN"
4,"red",1,NA,8000,6,"easy",0,"MainBlock","PROLIFIC",NA,NA,"red",529,0,1606162219684,9,"incongruent","5e651a304eb006294c9164ea:TSS-Stress_20201122","BLUE"
4,"yellow",1,NA,8000,6,"easy",0,"MainBlock","PROLIFIC",NA,NA,"yellow",642,0,1606162220216,10,"incongruent","5e651a304eb006294c9164ea:TSS-Stress_20201122","GREEN"
4,"blue",1,NA,8000,6,"easy",0,"MainBlock","PROLIFIC",NA,NA,"blue",567,0,1606162220861,11,"congruent","5e651a304eb006294c9164ea:TSS-Stress_20201122","BLUE"
4,"green",1,NA,8000,6,"easy",0,"MainBlock","PROLIFIC",NA,NA,"green",396,0,1606162221432,12,"congruent","5e651a304eb006294c9164ea:TSS-Stress_20201122","GREEN"
4,"",NA,NA,8000,6,"easy",0,"MainBlock","PROLIFIC",1,3.6,"",NA,0,NA,NA,"","5e651a304eb006294c9164ea:TSS-Stress_20201122",""
4,"red",1,NA,8000,7,"easy",0,"MainBlock","PROLIFIC",NA,NA,"red",1621,0,1606162229392,1,"incongruent","5e651a304eb006294c9164ea:TSS-Stress_20201122","GREEN"
4,"yellow",1,NA,8000,7,"easy",0,"MainBlock","PROLIFIC",NA,NA,"yellow",581,0,1606162231015,2,"congruent","5e651a304eb006294c9164ea:TSS-Stress_20201122","YELLOW"
4,"red",1,NA,8000,7,"easy",0,"MainBlock","PROLIFIC",NA,NA,"red",602,0,1606162231599,3,"congruent","5e651a304eb006294c9164ea:TSS-Stress_20201122","RED"
4,"blue",1,NA,8000,7,"easy",0,"MainBlock","PROLIFIC",NA,NA,"blue",640,0,1606162232204,4,"incongruent","5e651a304eb006294c9164ea:TSS-Stress_20201122","GREEN"
4,"green",1,NA,8000,7,"easy",0,"MainBlock","PROLIFIC",NA,NA,"green",448,0,1606162232848,5,"incongruent","5e651a304eb006294c9164ea:TSS-Stress_20201122","YELLOW"
4,"yellow",1,NA,8000,7,"easy",0,"MainBlock","PROLIFIC",NA,NA,"yellow",605,0,1606162233299,6,"incongruent","5e651a304eb006294c9164ea:TSS-Stress_20201122","RED"
4,"green",0,NA,8000,7,"easy",0,"MainBlock","PROLIFIC",NA,NA,"blue",689,0,1606162233907,7,"congruent","5e651a304eb006294c9164ea:TSS-Stress_20201122","GREEN"
4,"red",1,NA,8000,7,"easy",0,"MainBlock","PROLIFIC",NA,NA,"red",989,0,1606162234599,8,"congruent","5e651a304eb006294c9164ea:TSS-Stress_20201122","RED"
4,"yellow",1,NA,8000,7,"easy",0,"MainBlock","PROLIFIC",NA,NA,"yellow",896,0,1606162235592,9,"incongruent","5e651a304eb006294c9164ea:TSS-Stress_20201122","GREEN"
4,"green",1,NA,8000,7,"easy",0,"MainBlock","PROLIFIC",NA,NA,"green",429,0,1606162236491,10,"incongruent","5e651a304eb006294c9164ea:TSS-Stress_20201122","BLUE"
4,"",NA,NA,8000,7,"easy",0,"MainBlock","PROLIFIC",1,4,"",NA,0,NA,NA,"","5e651a304eb006294c9164ea:TSS-Stress_20201122",""
4,"green",1,NA,8000,8,"easy",0,"MainBlock","PROLIFIC",NA,NA,"green",813,0,1606162244611,1,"incongruent","5e651a304eb006294c9164ea:TSS-Stress_20201122","RED"
4,"yellow",1,NA,8000,8,"easy",0,"MainBlock","PROLIFIC",NA,NA,"yellow",653,0,1606162245427,2,"congruent","5e651a304eb006294c9164ea:TSS-Stress_20201122","YELLOW"
4,"green",1,NA,8000,8,"easy",0,"MainBlock","PROLIFIC",NA,NA,"green",556,0,1606162246084,3,"congruent","5e651a304eb006294c9164ea:TSS-Stress_20201122","GREEN"
4,"red",1,NA,8000,8,"easy",0,"MainBlock","PROLIFIC",NA,NA,"red",589,0,1606162246643,4,"incongruent","5e651a304eb006294c9164ea:TSS-Stress_20201122","BLUE"
4,"yellow",1,NA,8000,8,"easy",0,"MainBlock","PROLIFIC",NA,NA,"yellow",788,0,1606162247235,5,"congruent","5e651a304eb006294c9164ea:TSS-Stress_20201122","YELLOW"
4,"blue",1,NA,8000,8,"easy",0,"MainBlock","PROLIFIC",NA,NA,"blue",937,0,1606162248026,6,"incongruent","5e651a304eb006294c9164ea:TSS-Stress_20201122","GREEN"
4,"green",1,NA,8000,8,"easy",0,"MainBlock","PROLIFIC",NA,NA,"green",833,0,1606162248966,7,"incongruent","5e651a304eb006294c9164ea:TSS-Stress_20201122","RED"
4,"yellow",1,NA,8000,8,"easy",0,"MainBlock","PROLIFIC",NA,NA,"yellow",485,0,1606162249802,8,"congruent","5e651a304eb006294c9164ea:TSS-Stress_20201122","YELLOW"
4,"green",0,NA,8000,8,"easy",0,"MainBlock","PROLIFIC",NA,NA,"blue",721,0,1606162250290,9,"congruent","5e651a304eb006294c9164ea:TSS-Stress_20201122","GREEN"
4,"red",1,NA,8000,8,"easy",0,"MainBlock","PROLIFIC",NA,NA,"red",904,0,1606162251015,10,"incongruent","5e651a304eb006294c9164ea:TSS-Stress_20201122","BLUE"
4,"green",1,NA,8000,8,"easy",0,"MainBlock","PROLIFIC",NA,NA,"green",504,0,1606162251923,11,"congruent","5e651a304eb006294c9164ea:TSS-Stress_20201122","GREEN"
4,"",NA,NA,8000,8,"easy",0,"MainBlock","PROLIFIC",0,6.5,"",NA,0,NA,NA,"","5e651a304eb006294c9164ea:TSS-Stress_20201122",""
1,"green",1,NA,8000,1,"easy",0,"MainBlock","PROLIFIC",NA,NA,"green",1906,0,1606162058907,1,"congruent","5f481b993c255119b82c5ea6:TSS-Stress_20201122","GREEN"
1,"blue",1,NA,8000,1,"easy",0,"MainBlock","PROLIFIC",NA,NA,"blue",641,0,1606162060816,2,"incongruent","5f481b993c255119b82c5ea6:TSS-Stress_20201122","YELLOW"
1,"green",1,NA,8000,1,"easy",0,"MainBlock","PROLIFIC",NA,NA,"green",493,0,1606162061460,3,"congruent","5f481b993c255119b82c5ea6:TSS-Stress_20201122","GREEN"
1,"red",1,NA,8000,1,"easy",0,"MainBlock","PROLIFIC",NA,NA,"red",832,0,1606162061955,4,"incongruent","5f481b993c255119b82c5ea6:TSS-Stress_20201122","YELLOW"
1,"green",0,NA,8000,1,"easy",0,"MainBlock","PROLIFIC",NA,NA,"blue",632,0,1606162062789,5,"congruent","5f481b993c255119b82c5ea6:TSS-Stress_20201122","GREEN"
1,"blue",1,NA,8000,1,"easy",0,"MainBlock","PROLIFIC",NA,NA,"blue",1333,0,1606162063424,6,"incongruent","5f481b993c255119b82c5ea6:TSS-Stress_20201122","YELLOW"
1,"yellow",1,NA,8000,1,"easy",0,"MainBlock","PROLIFIC",NA,NA,"yellow",1052,0,1606162064759,7,"incongruent","5f481b993c255119b82c5ea6:TSS-Stress_20201122","GREEN"
1,"red",1,NA,8000,1,"easy",0,"MainBlock","PROLIFIC",NA,NA,"red",617,0,1606162065814,8,"congruent","5f481b993c255119b82c5ea6:TSS-Stress_20201122","RED"
1,"",NA,NA,8000,1,"easy",0,"MainBlock","PROLIFIC",0,5,"",NA,0,NA,NA,"","5f481b993c255119b82c5ea6:TSS-Stress_20201122",""
1,"yellow",1,NA,8000,2,"easy",0,"MainBlock","PROLIFIC",NA,NA,"yellow",1468,0,1606162076258,1,"congruent","5f481b993c255119b82c5ea6:TSS-Stress_20201122","YELLOW"
1,"blue",1,NA,8000,2,"easy",0,"MainBlock","PROLIFIC",NA,NA,"blue",966,0,1606162077728,2,"incongruent","5f481b993c255119b82c5ea6:TSS-Stress_20201122","RED"
1,"red",0,NA,8000,2,"easy",0,"MainBlock","PROLIFIC",NA,NA,"green",961,0,1606162078697,3,"incongruent","5f481b993c255119b82c5ea6:TSS-Stress_20201122","GREEN"
1,"green",1,NA,8000,2,"easy",0,"MainBlock","PROLIFIC",NA,NA,"green",1202,0,1606162079660,4,"incongruent","5f481b993c255119b82c5ea6:TSS-Stress_20201122","RED"
1,"blue",1,NA,8000,2,"easy",0,"MainBlock","PROLIFIC",NA,NA,"blue",1102,0,1606162080864,5,"congruent","5f481b993c255119b82c5ea6:TSS-Stress_20201122","BLUE"
1,"yellow",1,NA,8000,2,"easy",0,"MainBlock","PROLIFIC",NA,NA,"yellow",620,0,1606162081970,6,"congruent","5f481b993c255119b82c5ea6:TSS-Stress_20201122","YELLOW"
1,"green",1,NA,8000,2,"easy",0,"MainBlock","PROLIFIC",NA,NA,"green",1285,0,1606162082593,7,"congruent","5f481b993c255119b82c5ea6:TSS-Stress_20201122","GREEN"
1,"",NA,NA,8000,2,"easy",0.012,"MainBlock","PROLIFIC",0,5,"",NA,0,NA,NA,"","5f481b993c255119b82c5ea6:TSS-Stress_20201122",""
1,"green",1,NA,8000,3,"easy",0,"MainBlock","PROLIFIC",NA,NA,"green",1523,0,1606162093710,1,"incongruent","5f481b993c255119b82c5ea6:TSS-Stress_20201122","RED"
1,"yellow",1,NA,8000,3,"easy",0,"MainBlock","PROLIFIC",NA,NA,"yellow",975,0,1606162095236,2,"congruent","5f481b993c255119b82c5ea6:TSS-Stress_20201122","YELLOW"
1,"green",1,NA,8000,3,"easy",0,"MainBlock","PROLIFIC",NA,NA,"green",518,0,1606162096215,3,"congruent","5f481b993c255119b82c5ea6:TSS-Stress_20201122","GREEN"
1,"blue",1,NA,8000,3,"easy",0,"MainBlock","PROLIFIC",NA,NA,"blue",798,0,1606162096735,4,"incongruent","5f481b993c255119b82c5ea6:TSS-Stress_20201122","RED"
1,"red",1,NA,8000,3,"easy",0,"MainBlock","PROLIFIC",NA,NA,"red",629,0,1606162097536,5,"incongruent","5f481b993c255119b82c5ea6:TSS-Stress_20201122","GREEN"
1,"green",1,NA,8000,3,"easy",0,"MainBlock","PROLIFIC",NA,NA,"green",1039,0,1606162098168,6,"incongruent","5f481b993c255119b82c5ea6:TSS-Stress_20201122","BLUE"
1,"red",1,NA,8000,3,"easy",0,"MainBlock","PROLIFIC",NA,NA,"red",939,0,1606162099210,7,"congruent","5f481b993c255119b82c5ea6:TSS-Stress_20201122","RED"
1,"yellow",1,NA,8000,3,"easy",0,"MainBlock","PROLIFIC",NA,NA,"yellow",1248,0,1606162100153,8,"congruent","5f481b993c255119b82c5ea6:TSS-Stress_20201122","YELLOW"
1,"",NA,NA,8000,3,"easy",0,"MainBlock","PROLIFIC",1,5,"",NA,0,NA,NA,"","5f481b993c255119b82c5ea6:TSS-Stress_20201122",""
1,"yellow",1,NA,8000,4,"easy",0,"MainBlock","PROLIFIC",NA,NA,"yellow",1415,0,1606162110219,1,"incongruent","5f481b993c255119b82c5ea6:TSS-Stress_20201122","BLUE"
1,"red",1,NA,8000,4,"easy",0,"MainBlock","PROLIFIC",NA,NA,"red",583,0,1606162111637,2,"congruent","5f481b993c255119b82c5ea6:TSS-Stress_20201122","RED"
1,"blue",1,NA,8000,4,"easy",0,"MainBlock","PROLIFIC",NA,NA,"blue",576,0,1606162112222,3,"congruent","5f481b993c255119b82c5ea6:TSS-Stress_20201122","BLUE"
1,"red",1,NA,8000,4,"easy",0,"MainBlock","PROLIFIC",NA,NA,"red",1040,0,1606162112800,4,"incongruent","5f481b993c255119b82c5ea6:TSS-Stress_20201122","YELLOW"
1,"green",1,NA,8000,4,"easy",0,"MainBlock","PROLIFIC",NA,NA,"green",518,0,1606162113844,5,"congruent","5f481b993c255119b82c5ea6:TSS-Stress_20201122","GREEN"
1,"red",1,NA,8000,4,"easy",0,"MainBlock","PROLIFIC",NA,NA,"red",1012,0,1606162114364,6,"incongruent","5f481b993c255119b82c5ea6:TSS-Stress_20201122","BLUE"
1,"green",1,NA,8000,4,"easy",0,"MainBlock","PROLIFIC",NA,NA,"green",818,0,1606162115378,7,"congruent","5f481b993c255119b82c5ea6:TSS-Stress_20201122","GREEN"
1,"red",1,NA,8000,4,"easy",0,"MainBlock","PROLIFIC",NA,NA,"red",663,0,1606162116199,8,"incongruent","5f481b993c255119b82c5ea6:TSS-Stress_20201122","BLUE"
1,"",NA,NA,8000,4,"easy",0,"MainBlock","PROLIFIC",1,5,"",NA,0,NA,NA,"","5f481b993c255119b82c5ea6:TSS-Stress_20201122",""
1,"blue",1,NA,8000,5,"easy",0,"MainBlock","PROLIFIC",NA,NA,"blue",1214,0,1606162125328,1,"congruent","5f481b993c255119b82c5ea6:TSS-Stress_20201122","BLUE"
1,"red",1,NA,8000,5,"easy",0,"MainBlock","PROLIFIC",NA,NA,"red",1493,0,1606162126544,2,"incongruent","5f481b993c255119b82c5ea6:TSS-Stress_20201122","GREEN"
1,"green",1,NA,8000,5,"easy",0,"MainBlock","PROLIFIC",NA,NA,"green",1041,0,1606162128040,3,"incongruent","5f481b993c255119b82c5ea6:TSS-Stress_20201122","YELLOW"
1,"red",1,NA,8000,5,"easy",0,"MainBlock","PROLIFIC",NA,NA,"red",544,0,1606162129083,4,"congruent","5f481b993c255119b82c5ea6:TSS-Stress_20201122","RED"
1,"green",1,NA,8000,5,"easy",0,"MainBlock","PROLIFIC",NA,NA,"green",478,0,1606162129629,5,"congruent","5f481b993c255119b82c5ea6:TSS-Stress_20201122","GREEN"
1,"blue",1,NA,8000,5,"easy",0,"MainBlock","PROLIFIC",NA,NA,"blue",660,0,1606162130109,6,"incongruent","5f481b993c255119b82c5ea6:TSS-Stress_20201122","YELLOW"
1,"red",1,NA,8000,5,"easy",0,"MainBlock","PROLIFIC",NA,NA,"red",956,0,1606162130771,7,"congruent","5f481b993c255119b82c5ea6:TSS-Stress_20201122","RED"
1,"blue",1,NA,8000,5,"easy",0,"MainBlock","PROLIFIC",NA,NA,"blue",892,0,1606162131730,8,"incongruent","5f481b993c255119b82c5ea6:TSS-Stress_20201122","GREEN"
1,"red",1,NA,8000,5,"easy",0,"MainBlock","PROLIFIC",NA,NA,"red",618,0,1606162132625,9,"incongruent","5f481b993c255119b82c5ea6:TSS-Stress_20201122","YELLOW"
1,"",NA,NA,8000,5,"easy",0,"MainBlock","PROLIFIC",1,7.1,"",NA,0,NA,NA,"","5f481b993c255119b82c5ea6:TSS-Stress_20201122",""
1,"red",1,NA,8000,6,"easy",0,"MainBlock","PROLIFIC",NA,NA,"red",2180,0,1606162145468,1,"congruent","5f481b993c255119b82c5ea6:TSS-Stress_20201122","RED"
1,"green",1,NA,8000,6,"easy",0,"MainBlock","PROLIFIC",NA,NA,"green",1278,0,1606162147650,2,"incongruent","5f481b993c255119b82c5ea6:TSS-Stress_20201122","BLUE"
1,"yellow",1,NA,8000,6,"easy",0,"MainBlock","PROLIFIC",NA,NA,"yellow",899,0,1606162148931,3,"incongruent","5f481b993c255119b82c5ea6:TSS-Stress_20201122","GREEN"
1,"red",1,NA,8000,6,"easy",0,"MainBlock","PROLIFIC",NA,NA,"red",570,0,1606162149832,4,"congruent","5f481b993c255119b82c5ea6:TSS-Stress_20201122","RED"
1,"blue",1,NA,8000,6,"easy",0,"MainBlock","PROLIFIC",NA,NA,"blue",908,0,1606162150404,5,"incongruent","5f481b993c255119b82c5ea6:TSS-Stress_20201122","GREEN"
1,"yellow",1,NA,8000,6,"easy",0,"MainBlock","PROLIFIC",NA,NA,"yellow",1656,0,1606162151314,6,"incongruent","5f481b993c255119b82c5ea6:TSS-Stress_20201122","BLUE"
1,"",NA,NA,8000,6,"easy",0,"MainBlock","PROLIFIC",1,6.7,"",NA,0,NA,NA,"","5f481b993c255119b82c5ea6:TSS-Stress_20201122",""
1,"green",1,NA,8000,7,"easy",0,"MainBlock","PROLIFIC",NA,NA,"green",2376,0,1606162162415,1,"congruent","5f481b993c255119b82c5ea6:TSS-Stress_20201122","GREEN"
1,"yellow",1,NA,8000,7,"easy",0,"MainBlock","PROLIFIC",NA,NA,"yellow",898,0,1606162164793,2,"incongruent","5f481b993c255119b82c5ea6:TSS-Stress_20201122","BLUE"
1,"blue",1,NA,8000,7,"easy",0,"MainBlock","PROLIFIC",NA,NA,"blue",770,0,1606162165693,3,"incongruent","5f481b993c255119b82c5ea6:TSS-Stress_20201122","YELLOW"
1,"green",1,NA,8000,7,"easy",0,"MainBlock","PROLIFIC",NA,NA,"green",772,0,1606162166465,4,"incongruent","5f481b993c255119b82c5ea6:TSS-Stress_20201122","BLUE"
1,"yellow",1,NA,8000,7,"easy",0,"MainBlock","PROLIFIC",NA,NA,"yellow",986,0,1606162167239,5,"congruent","5f481b993c255119b82c5ea6:TSS-Stress_20201122","YELLOW"
1,"blue",1,NA,8000,7,"easy",0,"MainBlock","PROLIFIC",NA,NA,"blue",699,0,1606162168228,6,"incongruent","5f481b993c255119b82c5ea6:TSS-Stress_20201122","GREEN"
1,"red",1,NA,8000,7,"easy",0,"MainBlock","PROLIFIC",NA,NA,"red",609,0,1606162168930,7,"congruent","5f481b993c255119b82c5ea6:TSS-Stress_20201122","RED"
1,"",NA,NA,8000,7,"easy",0,"MainBlock","PROLIFIC",0,6.7,"",NA,0,NA,NA,"","5f481b993c255119b82c5ea6:TSS-Stress_20201122",""
1,"green",1,NA,8000,8,"easy",0,"MainBlock","PROLIFIC",NA,NA,"green",1797,0,1606162178077,1,"congruent","5f481b993c255119b82c5ea6:TSS-Stress_20201122","GREEN"
1,"red",1,NA,8000,8,"easy",0,"MainBlock","PROLIFIC",NA,NA,"red",883,0,1606162179876,2,"incongruent","5f481b993c255119b82c5ea6:TSS-Stress_20201122","YELLOW"
1,"yellow",1,NA,8000,8,"easy",0,"MainBlock","PROLIFIC",NA,NA,"yellow",1197,0,1606162180762,3,"incongruent","5f481b993c255119b82c5ea6:TSS-Stress_20201122","BLUE"
1,"red",1,NA,8000,8,"easy",0,"MainBlock","PROLIFIC",NA,NA,"red",630,0,1606162181962,4,"congruent","5f481b993c255119b82c5ea6:TSS-Stress_20201122","RED"
1,"green",1,NA,8000,8,"easy",0,"MainBlock","PROLIFIC",NA,NA,"green",697,0,1606162182594,5,"congruent","5f481b993c255119b82c5ea6:TSS-Stress_20201122","GREEN"
1,"red",1,NA,8000,8,"easy",0,"MainBlock","PROLIFIC",NA,NA,"red",1049,0,1606162183294,6,"incongruent","5f481b993c255119b82c5ea6:TSS-Stress_20201122","BLUE"
1,"green",1,NA,8000,8,"easy",0,"MainBlock","PROLIFIC",NA,NA,"green",1180,0,1606162184346,7,"incongruent","5f481b993c255119b82c5ea6:TSS-Stress_20201122","YELLOW"
1,"",NA,NA,8000,8,"easy",0.014,"MainBlock","PROLIFIC",0,3.5,"",NA,0,NA,NA,"","5f481b993c255119b82c5ea6:TSS-Stress_20201122",""
2,"red",1,NA,8000,1,"hard",0,"MainBlock","PROLIFIC",NA,NA,"red",996,0,1606162199331,1,"congruent","5f481b993c255119b82c5ea6:TSS-Stress_20201122","RED"
2,"green",1,NA,8000,1,"hard",0,"MainBlock","PROLIFIC",NA,NA,"green",1414,0,1606162200329,2,"incongruent","5f481b993c255119b82c5ea6:TSS-Stress_20201122","YELLOW"
2,"red",1,NA,8000,1,"hard",0,"MainBlock","PROLIFIC",NA,NA,"red",736,0,1606162201745,3,"congruent","5f481b993c255119b82c5ea6:TSS-Stress_20201122","RED"
2,"yellow",1,NA,8000,1,"hard",0,"MainBlock","PROLIFIC",NA,NA,"yellow",1216,0,1606162202484,4,"incongruent","5f481b993c255119b82c5ea6:TSS-Stress_20201122","BLUE"
2,"blue",1,NA,8000,1,"hard",0,"MainBlock","PROLIFIC",NA,NA,"blue",1100,0,1606162203702,5,"incongruent","5f481b993c255119b82c5ea6:TSS-Stress_20201122","RED"
2,"yellow",1,NA,8000,1,"hard",0,"MainBlock","PROLIFIC",NA,NA,"yellow",1010,0,1606162204804,6,"incongruent","5f481b993c255119b82c5ea6:TSS-Stress_20201122","BLUE"
2,"blue",1,NA,8000,1,"hard",0,"MainBlock","PROLIFIC",NA,NA,"blue",947,0,1606162205816,7,"incongruent","5f481b993c255119b82c5ea6:TSS-Stress_20201122","RED"
2,"",NA,NA,8000,1,"hard",0,"MainBlock","PROLIFIC",0,5,"",NA,0,NA,NA,"","5f481b993c255119b82c5ea6:TSS-Stress_20201122",""
2,"green",1,NA,8000,2,"hard",0,"MainBlock","PROLIFIC",NA,NA,"green",1883,0,1606162216287,1,"congruent","5f481b993c255119b82c5ea6:TSS-Stress_20201122","GREEN"
2,"yellow",1,NA,8000,2,"hard",0,"MainBlock","PROLIFIC",NA,NA,"yellow",733,0,1606162218172,2,"incongruent","5f481b993c255119b82c5ea6:TSS-Stress_20201122","BLUE"
2,"red",1,NA,8000,2,"hard",0,"MainBlock","PROLIFIC",NA,NA,"red",965,0,1606162218907,3,"incongruent","5f481b993c255119b82c5ea6:TSS-Stress_20201122","YELLOW"
2,"yellow",0,NA,8000,2,"hard",0,"MainBlock","PROLIFIC",NA,NA,"green",526,0,1606162219876,4,"incongruent","5f481b993c255119b82c5ea6:TSS-Stress_20201122","BLUE"
2,"red",0,NA,8000,2,"hard",0,"MainBlock","PROLIFIC",NA,NA,"yellow",754,0,1606162220405,5,"congruent","5f481b993c255119b82c5ea6:TSS-Stress_20201122","RED"
2,"yellow",0,NA,8000,2,"hard",0,"MainBlock","PROLIFIC",NA,NA,"red",836,0,1606162221161,6,"incongruent","5f481b993c255119b82c5ea6:TSS-Stress_20201122","BLUE"
2,"red",1,NA,8000,2,"hard",0,"MainBlock","PROLIFIC",NA,NA,"red",884,0,1606162221999,7,"incongruent","5f481b993c255119b82c5ea6:TSS-Stress_20201122","GREEN"
2,"yellow",0,NA,8000,2,"hard",0,"MainBlock","PROLIFIC",NA,NA,"red",214,0,1606162222885,8,"congruent","5f481b993c255119b82c5ea6:TSS-Stress_20201122","YELLOW"
2,"green",0,NA,8000,2,"hard",0,"MainBlock","PROLIFIC",NA,NA,"red",43,0,1606162223614,9,"congruent","5f481b993c255119b82c5ea6:TSS-Stress_20201122","GREEN"
2,"red",0,NA,8000,2,"hard",0,"MainBlock","PROLIFIC",NA,NA,"red",98,0,1606162224174,10,"congruent","5f481b993c255119b82c5ea6:TSS-Stress_20201122","RED"
2,"",NA,NA,8000,2,"hard",0,"MainBlock","PROLIFIC",0,3.9,"",NA,0,NA,NA,"","5f481b993c255119b82c5ea6:TSS-Stress_20201122",""
2,"blue",1,NA,8000,3,"hard",0,"MainBlock","PROLIFIC",NA,NA,"blue",7829,0,1606162231479,1,"congruent","5f481b993c255119b82c5ea6:TSS-Stress_20201122","BLUE"
2,"",NA,NA,8000,3,"hard",0.002,"MainBlock","PROLIFIC",1,6.6,"",NA,0,NA,NA,"","5f481b993c255119b82c5ea6:TSS-Stress_20201122",""
2,"green",1,NA,8000,4,"hard",0,"MainBlock","PROLIFIC",NA,NA,"green",2798,0,1606162248605,1,"incongruent","5f481b993c255119b82c5ea6:TSS-Stress_20201122","YELLOW"
2,"red",1,NA,8000,4,"hard",0,"MainBlock","PROLIFIC",NA,NA,"red",919,0,1606162251406,2,"congruent","5f481b993c255119b82c5ea6:TSS-Stress_20201122","RED"
2,"yellow",1,NA,8000,4,"hard",0,"MainBlock","PROLIFIC",NA,NA,"yellow",985,0,1606162252327,3,"congruent","5f481b993c255119b82c5ea6:TSS-Stress_20201122","YELLOW"
2,"green",1,NA,8000,4,"hard",0,"MainBlock","PROLIFIC",NA,NA,"green",1234,0,1606162253314,4,"incongruent","5f481b993c255119b82c5ea6:TSS-Stress_20201122","RED"
2,"blue",1,NA,8000,4,"hard",0,"MainBlock","PROLIFIC",NA,NA,"blue",871,0,1606162254551,5,"congruent","5f481b993c255119b82c5ea6:TSS-Stress_20201122","BLUE"
2,"green",1,NA,8000,4,"hard",0,"MainBlock","PROLIFIC",NA,NA,"green",671,0,1606162255425,6,"incongruent","5f481b993c255119b82c5ea6:TSS-Stress_20201122","RED"
2,"",NA,NA,8000,4,"hard",0,"MainBlock","PROLIFIC",1,5.9,"",NA,0,NA,NA,"","5f481b993c255119b82c5ea6:TSS-Stress_20201122",""
2,"blue",1,NA,8000,5,"hard",0,"MainBlock","PROLIFIC",NA,NA,"blue",2729,0,1606162264152,1,"incongruent","5f481b993c255119b82c5ea6:TSS-Stress_20201122","YELLOW"
2,"red",1,NA,8000,5,"hard",0,"MainBlock","PROLIFIC",NA,NA,"red",554,0,1606162266883,2,"congruent","5f481b993c255119b82c5ea6:TSS-Stress_20201122","RED"
2,"blue",1,NA,8000,5,"hard",0,"MainBlock","PROLIFIC",NA,NA,"blue",557,0,1606162267440,3,"congruent","5f481b993c255119b82c5ea6:TSS-Stress_20201122","BLUE"
2,"green",1,NA,8000,5,"hard",0,"MainBlock","PROLIFIC",NA,NA,"green",753,0,1606162267999,4,"incongruent","5f481b993c255119b82c5ea6:TSS-Stress_20201122","RED"
2,"yellow",1,NA,8000,5,"hard",0,"MainBlock","PROLIFIC",NA,NA,"yellow",453,0,1606162268757,5,"congruent","5f481b993c255119b82c5ea6:TSS-Stress_20201122","YELLOW"
2,"green",0,NA,8000,5,"hard",0,"MainBlock","PROLIFIC",NA,NA,"blue",1124,0,1606162269212,6,"incongruent","5f481b993c255119b82c5ea6:TSS-Stress_20201122","BLUE"
2,"red",0,NA,8000,5,"hard",0,"MainBlock","PROLIFIC",NA,NA,"green",807,0,1606162270339,7,"congruent","5f481b993c255119b82c5ea6:TSS-Stress_20201122","RED"
2,"yellow",0,NA,8000,5,"hard",0,"MainBlock","PROLIFIC",NA,NA,"red",686,0,1606162271150,8,"incongruent","5f481b993c255119b82c5ea6:TSS-Stress_20201122","GREEN"
2,"",NA,NA,8000,5,"hard",0,"MainBlock","PROLIFIC",0,3.1,"",NA,0,NA,NA,"","5f481b993c255119b82c5ea6:TSS-Stress_20201122",""
2,"red",1,NA,8000,6,"hard",0,"MainBlock","PROLIFIC",NA,NA,"red",1204,0,1606162279368,1,"congruent","5f481b993c255119b82c5ea6:TSS-Stress_20201122","RED"
2,"yellow",1,NA,8000,6,"hard",0,"MainBlock","PROLIFIC",NA,NA,"yellow",2665,0,1606162280574,2,"incongruent","5f481b993c255119b82c5ea6:TSS-Stress_20201122","GREEN"
2,"red",1,NA,8000,6,"hard",0,"MainBlock","PROLIFIC",NA,NA,"red",648,0,1606162283242,3,"congruent","5f481b993c255119b82c5ea6:TSS-Stress_20201122","RED"
2,"blue",1,NA,8000,6,"hard",0,"MainBlock","PROLIFIC",NA,NA,"blue",568,0,1606162283892,4,"incongruent","5f481b993c255119b82c5ea6:TSS-Stress_20201122","YELLOW"
2,"yellow",1,NA,8000,6,"hard",0,"MainBlock","PROLIFIC",NA,NA,"yellow",1700,0,1606162284462,5,"incongruent","5f481b993c255119b82c5ea6:TSS-Stress_20201122","RED"
2,"green",1,NA,8000,6,"hard",0,"MainBlock","PROLIFIC",NA,NA,"green",938,0,1606162286165,6,"congruent","5f481b993c255119b82c5ea6:TSS-Stress_20201122","GREEN"
2,"",NA,NA,8000,6,"hard",0,"MainBlock","PROLIFIC",0,5,"",NA,0,NA,NA,"","5f481b993c255119b82c5ea6:TSS-Stress_20201122",""
2,"green",1,NA,8000,7,"hard",0,"MainBlock","PROLIFIC",NA,NA,"green",2605,0,1606162295037,1,"congruent","5f481b993c255119b82c5ea6:TSS-Stress_20201122","GREEN"
2,"red",1,NA,8000,7,"hard",0,"MainBlock","PROLIFIC",NA,NA,"red",857,0,1606162297644,2,"incongruent","5f481b993c255119b82c5ea6:TSS-Stress_20201122","BLUE"
2,"yellow",1,NA,8000,7,"hard",0,"MainBlock","PROLIFIC",NA,NA,"yellow",842,0,1606162298503,3,"congruent","5f481b993c255119b82c5ea6:TSS-Stress_20201122","YELLOW"
2,"red",1,NA,8000,7,"hard",0,"MainBlock","PROLIFIC",NA,NA,"red",669,0,1606162299347,4,"incongruent","5f481b993c255119b82c5ea6:TSS-Stress_20201122","BLUE"
2,"green",1,NA,8000,7,"hard",0,"MainBlock","PROLIFIC",NA,NA,"green",991,0,1606162300018,5,"incongruent","5f481b993c255119b82c5ea6:TSS-Stress_20201122","RED"
2,"yellow",1,NA,8000,7,"hard",0,"MainBlock","PROLIFIC",NA,NA,"yellow",1029,0,1606162301011,6,"incongruent","5f481b993c255119b82c5ea6:TSS-Stress_20201122","BLUE"
2,"red",1,NA,8000,7,"hard",0,"MainBlock","PROLIFIC",NA,NA,"red",722,0,1606162302042,7,"congruent","5f481b993c255119b82c5ea6:TSS-Stress_20201122","RED"
2,"",NA,NA,8000,7,"hard",0,"MainBlock","PROLIFIC",1,5,"",NA,0,NA,NA,"","5f481b993c255119b82c5ea6:TSS-Stress_20201122",""
2,"green",1,NA,8000,8,"hard",0,"MainBlock","PROLIFIC",NA,NA,"green",1344,0,1606162309982,1,"incongruent","5f481b993c255119b82c5ea6:TSS-Stress_20201122","BLUE"
2,"yellow",1,NA,8000,8,"hard",0,"MainBlock","PROLIFIC",NA,NA,"yellow",761,0,1606162311328,2,"congruent","5f481b993c255119b82c5ea6:TSS-Stress_20201122","YELLOW"
2,"blue",1,NA,8000,8,"hard",0,"MainBlock","PROLIFIC",NA,NA,"blue",2285,0,1606162312093,3,"congruent","5f481b993c255119b82c5ea6:TSS-Stress_20201122","BLUE"
2,"green",1,NA,8000,8,"hard",0,"MainBlock","PROLIFIC",NA,NA,"green",992,0,1606162314380,4,"incongruent","5f481b993c255119b82c5ea6:TSS-Stress_20201122","RED"
2,"blue",1,NA,8000,8,"hard",0,"MainBlock","PROLIFIC",NA,NA,"blue",578,0,1606162315374,5,"congruent","5f481b993c255119b82c5ea6:TSS-Stress_20201122","BLUE"
2,"yellow",1,NA,8000,8,"hard",0,"MainBlock","PROLIFIC",NA,NA,"yellow",1483,0,1606162315954,6,"incongruent","5f481b993c255119b82c5ea6:TSS-Stress_20201122","GREEN"
2,"",NA,NA,8000,8,"hard",0.012,"MainBlock","PROLIFIC",1,5,"",NA,0,NA,NA,"","5f481b993c255119b82c5ea6:TSS-Stress_20201122",""
3,"yellow",1,NA,8000,1,"easy",0,"MainBlock","PROLIFIC",NA,NA,"yellow",1074,0,1606162330664,1,"incongruent","5f481b993c255119b82c5ea6:TSS-Stress_20201122","GREEN"
3,"red",1,NA,8000,1,"easy",0,"MainBlock","PROLIFIC",NA,NA,"red",595,0,1606162331741,2,"congruent","5f481b993c255119b82c5ea6:TSS-Stress_20201122","RED"
3,"yellow",1,NA,8000,1,"easy",0,"MainBlock","PROLIFIC",NA,NA,"yellow",497,0,1606162332339,3,"congruent","5f481b993c255119b82c5ea6:TSS-Stress_20201122","YELLOW"
3,"red",1,NA,8000,1,"easy",0,"MainBlock","PROLIFIC",NA,NA,"red",777,0,1606162332838,4,"incongruent","5f481b993c255119b82c5ea6:TSS-Stress_20201122","GREEN"
3,"blue",1,NA,8000,1,"easy",0,"MainBlock","PROLIFIC",NA,NA,"blue",964,0,1606162333618,5,"congruent","5f481b993c255119b82c5ea6:TSS-Stress_20201122","BLUE"
3,"yellow",1,NA,8000,1,"easy",0,"MainBlock","PROLIFIC",NA,NA,"yellow",720,0,1606162334584,6,"incongruent","5f481b993c255119b82c5ea6:TSS-Stress_20201122","GREEN"
3,"green",1,NA,8000,1,"easy",0,"MainBlock","PROLIFIC",NA,NA,"green",684,0,1606162335306,7,"incongruent","5f481b993c255119b82c5ea6:TSS-Stress_20201122","RED"
3,"blue",1,NA,8000,1,"easy",0,"MainBlock","PROLIFIC",NA,NA,"blue",648,0,1606162335992,8,"congruent","5f481b993c255119b82c5ea6:TSS-Stress_20201122","BLUE"
3,"green",1,NA,8000,1,"easy",0,"MainBlock","PROLIFIC",NA,NA,"green",978,0,1606162336642,9,"incongruent","5f481b993c255119b82c5ea6:TSS-Stress_20201122","RED"
3,"red",1,NA,8000,1,"easy",0,"MainBlock","PROLIFIC",NA,NA,"red",623,0,1606162337622,10,"incongruent","5f481b993c255119b82c5ea6:TSS-Stress_20201122","GREEN"
3,"",NA,NA,8000,1,"easy",0,"MainBlock","PROLIFIC",1,5,"",NA,0,NA,NA,"","5f481b993c255119b82c5ea6:TSS-Stress_20201122",""
3,"yellow",1,NA,8000,2,"easy",0,"MainBlock","PROLIFIC",NA,NA,"yellow",1453,0,1606162347954,1,"incongruent","5f481b993c255119b82c5ea6:TSS-Stress_20201122","RED"
3,"green",1,NA,8000,2,"easy",0,"MainBlock","PROLIFIC",NA,NA,"green",697,0,1606162349410,2,"congruent","5f481b993c255119b82c5ea6:TSS-Stress_20201122","GREEN"
3,"blue",1,NA,8000,2,"easy",0,"MainBlock","PROLIFIC",NA,NA,"blue",809,0,1606162350110,3,"incongruent","5f481b993c255119b82c5ea6:TSS-Stress_20201122","YELLOW"
3,"green",1,NA,8000,2,"easy",0,"MainBlock","PROLIFIC",NA,NA,"green",622,0,1606162350921,4,"congruent","5f481b993c255119b82c5ea6:TSS-Stress_20201122","GREEN"
3,"blue",1,NA,8000,2,"easy",0,"MainBlock","PROLIFIC",NA,NA,"blue",817,0,1606162351545,5,"incongruent","5f481b993c255119b82c5ea6:TSS-Stress_20201122","RED"
3,"red",1,NA,8000,2,"easy",0,"MainBlock","PROLIFIC",NA,NA,"red",858,0,1606162352365,6,"incongruent","5f481b993c255119b82c5ea6:TSS-Stress_20201122","YELLOW"
3,"yellow",1,NA,8000,2,"easy",0,"MainBlock","PROLIFIC",NA,NA,"yellow",750,0,1606162353225,7,"incongruent","5f481b993c255119b82c5ea6:TSS-Stress_20201122","RED"
3,"blue",1,NA,8000,2,"easy",0,"MainBlock","PROLIFIC",NA,NA,"blue",1527,0,1606162353977,8,"congruent","5f481b993c255119b82c5ea6:TSS-Stress_20201122","BLUE"
